delay,freq,condition,trials.thisRepN,trials.thisTrialN,trials.thisN,trials.thisIndex,polygon.started,polygon_2.started,key_resp.started,polygon.stopped,key_resp.keys,key_resp.rt,sound_1.started,text.started,textbox.started,button.started,textbox.text,button.numClicks,button.timesOn,button.timesOff,sound_1.stopped,participant,session,date,expName,psychopyVersion,frameRate,
0.4,1000,exp,0,0,0,4,14.603050709000001,15.574595124999973,15.574595124999973,15.600318666999954,space,0.9327608340000211,16.950279875666652,17.28994124999997,17.28994124999997,17.28994124999997,500,1,[3.9612834580000253],[3.9612862500000574],,1,001,2023-11-09_11h08.52.731,Intentional_binding,2022.2.5,None,
0.7,1000,exp,0,1,1,11,21.233030499999927,22.222734584000023,22.222734584000023,22.222734584000023,space,0.7820383749999564,23.71738550066665,24.05584024999996,24.05584024999996,24.05584024999996,700,2,"[3.9612834580000253, 3.3855182500000183]","[3.9612862500000574, 3.385520917000008]",24.05584024999996,1,001,2023-11-09_11h08.52.731,Intentional_binding,2022.2.5,None,
0.1,1000,exp,0,2,2,3,27.433538459000033,28.422891041999947,28.422891041999947,28.422891041999947,space,0.5979972919999454,29.134454541666642,29.468750333999992,29.468750333999992,29.468750333999992,200,3,"[3.9612834580000253, 3.3855182500000183, 2.205716209000002]","[3.9612862500000574, 3.385520917000008, 2.205719042000055]",29.468750333999992,1,001,2023-11-09_11h08.52.731,Intentional_binding,2022.2.5,None,
0.1,1000,exp,0,3,3,9,31.66700025,32.65706049999994,32.65706049999994,32.65706049999994,space,0.7143932919999543,33.47527745866661,33.817195708999975,33.817195708999975,33.817195708999975,200,4,"[3.9612834580000253, 3.3855182500000183, 2.205716209000002, 2.3895200000000614]","[3.9612862500000574, 3.385520917000008, 2.205719042000055, 2.389522750000083]",,1,001,2023-11-09_11h08.52.731,Intentional_binding,2022.2.5,None,
0.4,400,unexp,0,4,4,1,36.201236042000005,37.19057995899993,37.19057995899993,37.19057995899993,space,0.39281079200009117,37.99065283366669,38.326413333999994,38.326413333999994,38.326413333999994,600,5,"[3.9612834580000253, 3.3855182500000183, 2.205716209000002, 2.3895200000000614, 2.880322417000002]","[3.9612862500000574, 3.385520917000008, 2.205719042000055, 2.389522750000083, 2.8803254580000157]",,1,001,2023-11-09_11h08.52.731,Intentional_binding,2022.2.5,None,
0.1,400,unexp,0,5,5,0,41.200651291999975,42.19066504199998,42.19066504199998,42.19066504199998,space,0.2904172500000186,42.5905366256667,42.92797774999997,42.92797774999997,42.92797774999997,400,6,"[3.9612834580000253, 3.3855182500000183, 2.205716209000002, 2.3895200000000614, 2.880322417000002, 2.6793477919999305]","[3.9612862500000574, 3.385520917000008, 2.205719042000055, 2.389522750000083, 2.8803254580000157, 2.679350541999952]",42.92797774999997,1,001,2023-11-09_11h08.52.731,Intentional_binding,2022.2.5,None,
0.7,400,unexp,0,6,6,2,45.60094179199996,46.59041291699998,46.59041291699998,46.59041291699998,space,0.4442424580000761,47.7411539586666,48.072402709000016,48.072402709000016,48.072402709000016,900,7,"[3.9612834580000253, 3.3855182500000183, 2.205716209000002, 2.3895200000000614, 2.880322417000002, 2.6793477919999305, 2.6689032079999606]","[3.9612862500000574, 3.385520917000008, 2.205719042000055, 2.389522750000083, 2.8803254580000157, 2.679350541999952, 2.668905957999982]",48.072402709000016,1,001,2023-11-09_11h08.52.731,Intentional_binding,2022.2.5,None,
0.4,1000,exp,0,7,7,10,50.73452624999993,51.72396800000001,51.72396800000001,51.72396800000001,space,0.4305066249999072,52.56835633366667,52.904244833999996,52.904244833999996,52.904244833999996,500,8,"[3.9612834580000253, 3.3855182500000183, 2.205716209000002, 2.3895200000000614, 2.880322417000002, 2.6793477919999305, 2.6689032079999606, 2.153580624999904]","[3.9612862500000574, 3.385520917000008, 2.205719042000055, 2.389522750000083, 2.8803254580000157, 2.679350541999952, 2.668905957999982, 2.1535833339999044]",52.904244833999996,1,001,2023-11-09_11h08.52.731,Intentional_binding,2022.2.5,None,
0.4,1000,exp,0,8,8,7,55.051197,56.04118499999993,56.04118499999993,56.04118499999993,space,0.40540854099992885,56.857848208666624,57.18370649999997,57.18370649999997,57.18370649999997,400,9,"[3.9612834580000253, 3.3855182500000183, 2.205716209000002, 2.3895200000000614, 2.880322417000002, 2.6793477919999305, 2.6689032079999606, 2.153580624999904, 2.8577587500000163]","[3.9612862500000574, 3.385520917000008, 2.205719042000055, 2.389522750000083, 2.8803254580000157, 2.679350541999952, 2.668905957999982, 2.1535833339999044, 2.8577617500000088]",57.18370649999997,1,001,2023-11-09_11h08.52.731,Intentional_binding,2022.2.5,None,
0.7,1000,exp,0,9,9,5,60.034770874999936,61.02447725000002,61.02447725000002,61.02447725000002,space,0.4081160829999817,62.14064162566662,62.477666916999965,62.477666916999965,62.477666916999965,400,10,"[3.9612834580000253, 3.3855182500000183, 2.205716209000002, 2.3895200000000614, 2.880322417000002, 2.6793477919999305, 2.6689032079999606, 2.153580624999904, 2.8577587500000163, 2.798388791999969]","[3.9612862500000574, 3.385520917000008, 2.205719042000055, 2.389522750000083, 2.8803254580000157, 2.679350541999952, 2.668905957999982, 2.1535833339999044, 2.8577617500000088, 2.7983922079999957]",62.477666916999965,1,001,2023-11-09_11h08.52.731,Intentional_binding,2022.2.5,None,
0.7,1000,exp,0,10,10,8,65.26856029199996,66.25790841699995,66.25790841699995,66.25790841699995,space,0.2718497910000224,67.24081150066662,67.58051749999993,67.58051749999993,67.58051749999993,600,11,"[3.9612834580000253, 3.3855182500000183, 2.205716209000002, 2.3895200000000614, 2.880322417000002, 2.6793477919999305, 2.6689032079999606, 2.153580624999904, 2.8577587500000163, 2.798388791999969, 1.8957115829999793]","[3.9612862500000574, 3.385520917000008, 2.205719042000055, 2.389522750000083, 2.8803254580000157, 2.679350541999952, 2.668905957999982, 2.1535833339999044, 2.8577617500000088, 2.7983922079999957, 1.8957142079999585]",67.58051749999993,1,001,2023-11-09_11h08.52.731,Intentional_binding,2022.2.5,None,
0.1,1000,exp,0,11,11,6,69.46863095899994,70.457692834,70.457692834,70.457692834,space,0.601339707999955,71.17520120866665,71.50890783399996,71.50890783399996,71.50890783399996,200,12,"[3.9612834580000253, 3.3855182500000183, 2.205716209000002, 2.3895200000000614, 2.880322417000002, 2.6793477919999305, 2.6689032079999606, 2.153580624999904, 2.8577587500000163, 2.798388791999969, 1.8957115829999793, 2.5001290410000365]","[3.9612862500000574, 3.385520917000008, 2.205719042000055, 2.389522750000083, 2.8803254580000157, 2.679350541999952, 2.668905957999982, 2.1535833339999044, 2.8577617500000088, 2.7983922079999957, 1.8957142079999585, 2.5001316249999945]",71.50890783399996,1,001,2023-11-09_11h08.52.731,Intentional_binding,2022.2.5,None,
0.7,400,unexp,1,0,12,2,74.00187633400003,74.99156654199999,74.99156654199999,74.99156654199999,space,0.40251579200003107,76.1075022506666,76.43878670899994,76.43878670899994,76.43878670899994,500,13,"[3.9612834580000253, 3.3855182500000183, 2.205716209000002, 2.3895200000000614, 2.880322417000002, 2.6793477919999305, 2.6689032079999606, 2.153580624999904, 2.8577587500000163, 2.798388791999969, 1.8957115829999793, 2.5001290410000365, 3.1194625839999617]","[3.9612862500000574, 3.385520917000008, 2.205719042000055, 2.389522750000083, 2.8803254580000157, 2.679350541999952, 2.668905957999982, 2.1535833339999044, 2.8577617500000088, 2.7983922079999957, 1.8957142079999585, 2.5001316249999945, 3.1194655000000466]",,1,001,2023-11-09_11h08.52.731,Intentional_binding,2022.2.5,None,
0.1,1000,exp,1,1,13,9,79.552152417,80.54301716700002,80.54301716700002,80.54301716700002,space,0.3041565000000901,80.9530169166667,81.27794825000001,81.27794825000001,81.27794825000001,200,14,"[3.9612834580000253, 3.3855182500000183, 2.205716209000002, 2.3895200000000614, 2.880322417000002, 2.6793477919999305, 2.6689032079999606, 2.153580624999904, 2.8577587500000163, 2.798388791999969, 1.8957115829999793, 2.5001290410000365, 3.1194625839999617, 2.141895708999982]","[3.9612862500000574, 3.385520917000008, 2.205719042000055, 2.389522750000083, 2.8803254580000157, 2.679350541999952, 2.668905957999982, 2.1535833339999044, 2.8577617500000088, 2.7983922079999957, 1.8957142079999585, 2.5001316249999945, 3.1194655000000466, 2.141897874999927]",81.27794825000001,1,001,2023-11-09_11h08.52.731,Intentional_binding,2022.2.5,None,
0.4,1000,exp,1,2,14,4,83.41888883399997,84.40299529200001,84.40299529200001,84.410920584,space,0.5039537910000718,85.3198471666666,85.65225887500003,85.65225887500003,85.65225887500003,400,15,"[3.9612834580000253, 3.3855182500000183, 2.205716209000002, 2.3895200000000614, 2.880322417000002, 2.6793477919999305, 2.6689032079999606, 2.153580624999904, 2.8577587500000163, 2.798388791999969, 1.8957115829999793, 2.5001290410000365, 3.1194625839999617, 2.141895708999982, 1.8345965409999963]","[3.9612862500000574, 3.385520917000008, 2.205719042000055, 2.389522750000083, 2.8803254580000157, 2.679350541999952, 2.668905957999982, 2.1535833339999044, 2.8577617500000088, 2.7983922079999957, 1.8957142079999585, 2.5001316249999945, 3.1194655000000466, 2.141897874999927, 1.834599207999986]",85.65225887500003,1,001,2023-11-09_11h08.52.731,Intentional_binding,2022.2.5,None,
0.7,1000,exp,1,3,15,11,87.48577641700001,88.46996191699998,88.46996191699998,88.48669529200004,space,0.66946791700002,89.85315829166667,90.17803208399994,90.17803208399994,90.17803208399994,700,16,"[3.9612834580000253, 3.3855182500000183, 2.205716209000002, 2.3895200000000614, 2.880322417000002, 2.6793477919999305, 2.6689032079999606, 2.153580624999904, 2.8577587500000163, 2.798388791999969, 1.8957115829999793, 2.5001290410000365, 3.1194625839999617, 2.141895708999982, 1.8345965409999963, 2.3593643330000305]","[3.9612862500000574, 3.385520917000008, 2.205719042000055, 2.389522750000083, 2.8803254580000157, 2.679350541999952, 2.668905957999982, 2.1535833339999044, 2.8577617500000088, 2.7983922079999957, 1.8957142079999585, 2.5001316249999945, 3.1194655000000466, 2.141897874999927, 1.834599207999986, 2.359367249999991]",,1,001,2023-11-09_11h08.52.731,Intentional_binding,2022.2.5,None,
0.1,1000,exp,1,4,16,3,92.535832959,93.52006037499996,93.52006037499996,93.52710562499999,space,0.336462417000007,93.95878062566659,94.292315959,94.292315959,94.292315959,100,17,"[3.9612834580000253, 3.3855182500000183, 2.205716209000002, 2.3895200000000614, 2.880322417000002, 2.6793477919999305, 2.6689032079999606, 2.153580624999904, 2.8577587500000163, 2.798388791999969, 1.8957115829999793, 2.5001290410000365, 3.1194625839999617, 2.141895708999982, 1.8345965409999963, 2.3593643330000305, 1.8117736670000113]","[3.9612862500000574, 3.385520917000008, 2.205719042000055, 2.389522750000083, 2.8803254580000157, 2.679350541999952, 2.668905957999982, 2.1535833339999044, 2.8577617500000088, 2.7983922079999957, 1.8957142079999585, 2.5001316249999945, 3.1194655000000466, 2.141897874999927, 1.834599207999986, 2.359367249999991, 1.8117764170000328]",94.292315959,1,001,2023-11-09_11h08.52.731,Intentional_binding,2022.2.5,None,
0.4,1000,exp,1,5,17,7,96.10260958399999,97.08669874999998,97.08669874999998,97.09254670899998,space,0.272601375000022,97.7702644586666,98.10401249999995,98.10401249999995,98.10401249999995,200,18,"[3.9612834580000253, 3.3855182500000183, 2.205716209000002, 2.3895200000000614, 2.880322417000002, 2.6793477919999305, 2.6689032079999606, 2.153580624999904, 2.8577587500000163, 2.798388791999969, 1.8957115829999793, 2.5001290410000365, 3.1194625839999617, 2.141895708999982, 1.8345965409999963, 2.3593643330000305, 1.8117736670000113, 1.918233999999984]","[3.9612862500000574, 3.385520917000008, 2.205719042000055, 2.389522750000083, 2.8803254580000157, 2.679350541999952, 2.668905957999982, 2.1535833339999044, 2.8577617500000088, 2.7983922079999957, 1.8957142079999585, 2.5001316249999945, 3.1194655000000466, 2.141897874999927, 1.834599207999986, 2.359367249999991, 1.8117764170000328, 1.918236458000024]",,1,001,2023-11-09_11h08.52.731,Intentional_binding,2022.2.5,None,
0.7,1000,exp,1,6,18,8,100.01953025,101.00368970900001,101.00368970900001,101.01006379199998,space,0.4240512919999446,102.14315591666663,102.476734792,102.476734792,102.476734792,600,19,"[3.9612834580000253, 3.3855182500000183, 2.205716209000002, 2.3895200000000614, 2.880322417000002, 2.6793477919999305, 2.6689032079999606, 2.153580624999904, 2.8577587500000163, 2.798388791999969, 1.8957115829999793, 2.5001290410000365, 3.1194625839999617, 2.141895708999982, 1.8345965409999963, 2.3593643330000305, 1.8117736670000113, 1.918233999999984, 3.4982977079999955]","[3.9612862500000574, 3.385520917000008, 2.205719042000055, 2.389522750000083, 2.8803254580000157, 2.679350541999952, 2.668905957999982, 2.1535833339999044, 2.8577617500000088, 2.7983922079999957, 1.8957142079999585, 2.5001316249999945, 3.1194655000000466, 2.141897874999927, 1.834599207999986, 2.359367249999991, 1.8117764170000328, 1.918236458000024, 3.4983008330000303]",102.476734792,1,001,2023-11-09_11h08.52.731,Intentional_binding,2022.2.5,None,
0.4,1000,exp,1,7,19,10,105.97034591700003,106.95993124999995,106.95993124999995,106.95993124999995,space,0.4769852910000054,107.8428816666666,108.17566491699995,108.17566491699995,108.17566491699995,500,20,"[3.9612834580000253, 3.3855182500000183, 2.205716209000002, 2.3895200000000614, 2.880322417000002, 2.6793477919999305, 2.6689032079999606, 2.153580624999904, 2.8577587500000163, 2.798388791999969, 1.8957115829999793, 2.5001290410000365, 3.1194625839999617, 2.141895708999982, 1.8345965409999963, 2.3593643330000305, 1.8117736670000113, 1.918233999999984, 3.4982977079999955, 2.6181871250000768]","[3.9612862500000574, 3.385520917000008, 2.205719042000055, 2.389522750000083, 2.8803254580000157, 2.679350541999952, 2.668905957999982, 2.1535833339999044, 2.8577617500000088, 2.7983922079999957, 1.8957142079999585, 2.5001316249999945, 3.1194655000000466, 2.141897874999927, 1.834599207999986, 2.359367249999991, 1.8117764170000328, 1.918236458000024, 3.4983008330000303, 2.6181898330000877]",108.17566491699995,1,001,2023-11-09_11h08.52.731,Intentional_binding,2022.2.5,None,
0.7,1000,exp,1,8,20,5,110.78718129200001,111.77631187500003,111.77631187500003,111.77631187500003,space,0.5503548750000391,113.03706891666663,113.37202620899996,113.37202620899996,113.37202620899996,700,21,"[3.9612834580000253, 3.3855182500000183, 2.205716209000002, 2.3895200000000614, 2.880322417000002, 2.6793477919999305, 2.6689032079999606, 2.153580624999904, 2.8577587500000163, 2.798388791999969, 1.8957115829999793, 2.5001290410000365, 3.1194625839999617, 2.141895708999982, 1.8345965409999963, 2.3593643330000305, 1.8117736670000113, 1.918233999999984, 3.4982977079999955, 2.6181871250000768, 1.9715783750000355]","[3.9612862500000574, 3.385520917000008, 2.205719042000055, 2.389522750000083, 2.8803254580000157, 2.679350541999952, 2.668905957999982, 2.1535833339999044, 2.8577617500000088, 2.7983922079999957, 1.8957142079999585, 2.5001316249999945, 3.1194655000000466, 2.141897874999927, 1.834599207999986, 2.359367249999991, 1.8117764170000328, 1.918236458000024, 3.4983008330000303, 2.6181898330000877, 1.9715813340000068]",113.37202620899996,1,001,2023-11-09_11h08.52.731,Intentional_binding,2022.2.5,None,
0.1,1000,exp,1,9,21,6,115.33662195900001,116.32646975,116.32646975,116.32646975,space,0.3963296659999287,116.82815745866664,117.156147917,117.156147917,117.156147917,100,22,"[3.9612834580000253, 3.3855182500000183, 2.205716209000002, 2.3895200000000614, 2.880322417000002, 2.6793477919999305, 2.6689032079999606, 2.153580624999904, 2.8577587500000163, 2.798388791999969, 1.8957115829999793, 2.5001290410000365, 3.1194625839999617, 2.141895708999982, 1.8345965409999963, 2.3593643330000305, 1.8117736670000113, 1.918233999999984, 3.4982977079999955, 2.6181871250000768, 1.9715783750000355, 2.438444666999999]","[3.9612862500000574, 3.385520917000008, 2.205719042000055, 2.389522750000083, 2.8803254580000157, 2.679350541999952, 2.668905957999982, 2.1535833339999044, 2.8577617500000088, 2.7983922079999957, 1.8957142079999585, 2.5001316249999945, 3.1194655000000466, 2.141897874999927, 1.834599207999986, 2.359367249999991, 1.8117764170000328, 1.918236458000024, 3.4983008330000303, 2.6181898330000877, 1.9715813340000068, 2.4384476669999913]",,1,001,2023-11-09_11h08.52.731,Intentional_binding,2022.2.5,None,
0.1,400,unexp,1,10,22,0,119.58670091700003,120.57657066699994,120.57657066699994,120.57657066699994,space,0.2772732079999969,120.9588525006666,121.28760116699993,121.28760116699993,121.28760116699993,300,23,"[3.9612834580000253, 3.3855182500000183, 2.205716209000002, 2.3895200000000614, 2.880322417000002, 2.6793477919999305, 2.6689032079999606, 2.153580624999904, 2.8577587500000163, 2.798388791999969, 1.8957115829999793, 2.5001290410000365, 3.1194625839999617, 2.141895708999982, 1.8345965409999963, 2.3593643330000305, 1.8117736670000113, 1.918233999999984, 3.4982977079999955, 2.6181871250000768, 1.9715783750000355, 2.438444666999999, 4.389764749999927]","[3.9612862500000574, 3.385520917000008, 2.205719042000055, 2.389522750000083, 2.8803254580000157, 2.679350541999952, 2.668905957999982, 2.1535833339999044, 2.8577617500000088, 2.7983922079999957, 1.8957142079999585, 2.5001316249999945, 3.1194655000000466, 2.141897874999927, 1.834599207999986, 2.359367249999991, 1.8117764170000328, 1.918236458000024, 3.4983008330000303, 2.6181898330000877, 1.9715813340000068, 2.4384476669999913, 4.389767708000022]",,1,001,2023-11-09_11h08.52.731,Intentional_binding,2022.2.5,None,
0.4,400,unexp,1,11,23,1,125.67033387499998,126.659878875,126.659878875,126.659878875,space,0.3799024999999574,127.45440275066666,127.78151724999998,127.78151724999998,127.78151724999998,500,24,"[3.9612834580000253, 3.3855182500000183, 2.205716209000002, 2.3895200000000614, 2.880322417000002, 2.6793477919999305, 2.6689032079999606, 2.153580624999904, 2.8577587500000163, 2.798388791999969, 1.8957115829999793, 2.5001290410000365, 3.1194625839999617, 2.141895708999982, 1.8345965409999963, 2.3593643330000305, 1.8117736670000113, 1.918233999999984, 3.4982977079999955, 2.6181871250000768, 1.9715783750000355, 2.438444666999999, 4.389764749999927, 2.813137875000052]","[3.9612862500000574, 3.385520917000008, 2.205719042000055, 2.389522750000083, 2.8803254580000157, 2.679350541999952, 2.668905957999982, 2.1535833339999044, 2.8577617500000088, 2.7983922079999957, 1.8957142079999585, 2.5001316249999945, 3.1194655000000466, 2.141897874999927, 1.834599207999986, 2.359367249999991, 1.8117764170000328, 1.918236458000024, 3.4983008330000303, 2.6181898330000877, 1.9715813340000068, 2.4384476669999913, 4.389767708000022, 2.8131406669999706]",,1,001,2023-11-09_11h08.52.731,Intentional_binding,2022.2.5,None,
0.1,1000,exp,2,0,24,9,130.587339542,131.57700899999998,131.57700899999998,131.57700899999998,space,0.30410237499995674,131.99267958366661,132.32842837499993,132.32842837499993,132.32842837499993,200,25,"[3.9612834580000253, 3.3855182500000183, 2.205716209000002, 2.3895200000000614, 2.880322417000002, 2.6793477919999305, 2.6689032079999606, 2.153580624999904, 2.8577587500000163, 2.798388791999969, 1.8957115829999793, 2.5001290410000365, 3.1194625839999617, 2.141895708999982, 1.8345965409999963, 2.3593643330000305, 1.8117736670000113, 1.918233999999984, 3.4982977079999955, 2.6181871250000768, 1.9715783750000355, 2.438444666999999, 4.389764749999927, 2.813137875000052, 1.8499312499999405]","[3.9612862500000574, 3.385520917000008, 2.205719042000055, 2.389522750000083, 2.8803254580000157, 2.679350541999952, 2.668905957999982, 2.1535833339999044, 2.8577617500000088, 2.7983922079999957, 1.8957142079999585, 2.5001316249999945, 3.1194655000000466, 2.141897874999927, 1.834599207999986, 2.359367249999991, 1.8117764170000328, 1.918236458000024, 3.4983008330000303, 2.6181898330000877, 1.9715813340000068, 2.4384476669999913, 4.389767708000022, 2.8131406669999706, 1.8499339579999514]",132.32842837499993,1,001,2023-11-09_11h08.52.731,Intentional_binding,2022.2.5,None,
0.4,1000,exp,2,1,25,4,134.170700625,135.16038420899997,135.16038420899997,135.16038420899997,space,0.32369858399999885,135.89373329166668,136.230617834,136.230617834,136.230617834,100,26,"[3.9612834580000253, 3.3855182500000183, 2.205716209000002, 2.3895200000000614, 2.880322417000002, 2.6793477919999305, 2.6689032079999606, 2.153580624999904, 2.8577587500000163, 2.798388791999969, 1.8957115829999793, 2.5001290410000365, 3.1194625839999617, 2.141895708999982, 1.8345965409999963, 2.3593643330000305, 1.8117736670000113, 1.918233999999984, 3.4982977079999955, 2.6181871250000768, 1.9715783750000355, 2.438444666999999, 4.389764749999927, 2.813137875000052, 1.8499312499999405, 1.8309546670000145]","[3.9612862500000574, 3.385520917000008, 2.205719042000055, 2.389522750000083, 2.8803254580000157, 2.679350541999952, 2.668905957999982, 2.1535833339999044, 2.8577617500000088, 2.7983922079999957, 1.8957142079999585, 2.5001316249999945, 3.1194655000000466, 2.141897874999927, 1.834599207999986, 2.359367249999991, 1.8117764170000328, 1.918236458000024, 3.4983008330000303, 2.6181898330000877, 1.9715813340000068, 2.4384476669999913, 4.389767708000022, 2.8131406669999706, 1.8499339579999514, 1.8309580420000202]",136.230617834,1,001,2023-11-09_11h08.52.731,Intentional_binding,2022.2.5,None,
0.4,1000,exp,2,2,26,10,138.05409999999995,139.04381024999998,139.04381024999998,139.04381024999998,space,0.538730542000053,139.99279495866668,140.33550987499996,140.33550987499996,140.33550987499996,200,27,"[3.9612834580000253, 3.3855182500000183, 2.205716209000002, 2.3895200000000614, 2.880322417000002, 2.6793477919999305, 2.6689032079999606, 2.153580624999904, 2.8577587500000163, 2.798388791999969, 1.8957115829999793, 2.5001290410000365, 3.1194625839999617, 2.141895708999982, 1.8345965409999963, 2.3593643330000305, 1.8117736670000113, 1.918233999999984, 3.4982977079999955, 2.6181871250000768, 1.9715783750000355, 2.438444666999999, 4.389764749999927, 2.813137875000052, 1.8499312499999405, 1.8309546670000145, 2.2108029170000236]","[3.9612862500000574, 3.385520917000008, 2.205719042000055, 2.389522750000083, 2.8803254580000157, 2.679350541999952, 2.668905957999982, 2.1535833339999044, 2.8577617500000088, 2.7983922079999957, 1.8957142079999585, 2.5001316249999945, 3.1194655000000466, 2.141897874999927, 1.834599207999986, 2.359367249999991, 1.8117764170000328, 1.918236458000024, 3.4983008330000303, 2.6181898330000877, 1.9715813340000068, 2.4384476669999913, 4.389767708000022, 2.8131406669999706, 1.8499339579999514, 1.8309580420000202, 2.210805583000024]",140.33550987499996,1,001,2023-11-09_11h08.52.731,Intentional_binding,2022.2.5,None,
0.4,1000,exp,2,3,27,7,142.53772416699996,143.528268917,143.528268917,143.528268917,space,1.2623033749999877,145.20486912566665,145.5350145,145.5350145,145.5350145,400,28,"[3.9612834580000253, 3.3855182500000183, 2.205716209000002, 2.3895200000000614, 2.880322417000002, 2.6793477919999305, 2.6689032079999606, 2.153580624999904, 2.8577587500000163, 2.798388791999969, 1.8957115829999793, 2.5001290410000365, 3.1194625839999617, 2.141895708999982, 1.8345965409999963, 2.3593643330000305, 1.8117736670000113, 1.918233999999984, 3.4982977079999955, 2.6181871250000768, 1.9715783750000355, 2.438444666999999, 4.389764749999927, 2.813137875000052, 1.8499312499999405, 1.8309546670000145, 2.2108029170000236, 1.9936957080000184]","[3.9612862500000574, 3.385520917000008, 2.205719042000055, 2.389522750000083, 2.8803254580000157, 2.679350541999952, 2.668905957999982, 2.1535833339999044, 2.8577617500000088, 2.7983922079999957, 1.8957142079999585, 2.5001316249999945, 3.1194655000000466, 2.141897874999927, 1.834599207999986, 2.359367249999991, 1.8117764170000328, 1.918236458000024, 3.4983008330000303, 2.6181898330000877, 1.9715813340000068, 2.4384476669999913, 4.389767708000022, 2.8131406669999706, 1.8499339579999514, 1.8309580420000202, 2.210805583000024, 1.9936986250000928]",,1,001,2023-11-09_11h08.52.731,Intentional_binding,2022.2.5,None,
0.1,1000,exp,2,4,28,6,147.52178116699997,148.51124008399995,148.51124008399995,148.51124008399995,space,0.36653787499994905,148.98829362566667,149.32534416700003,149.32534416700003,149.32534416700003,100,29,"[3.9612834580000253, 3.3855182500000183, 2.205716209000002, 2.3895200000000614, 2.880322417000002, 2.6793477919999305, 2.6689032079999606, 2.153580624999904, 2.8577587500000163, 2.798388791999969, 1.8957115829999793, 2.5001290410000365, 3.1194625839999617, 2.141895708999982, 1.8345965409999963, 2.3593643330000305, 1.8117736670000113, 1.918233999999984, 3.4982977079999955, 2.6181871250000768, 1.9715783750000355, 2.438444666999999, 4.389764749999927, 2.813137875000052, 1.8499312499999405, 1.8309546670000145, 2.2108029170000236, 1.9936957080000184, 1.55305070899999]","[3.9612862500000574, 3.385520917000008, 2.205719042000055, 2.389522750000083, 2.8803254580000157, 2.679350541999952, 2.668905957999982, 2.1535833339999044, 2.8577617500000088, 2.7983922079999957, 1.8957142079999585, 2.5001316249999945, 3.1194655000000466, 2.141897874999927, 1.834599207999986, 2.359367249999991, 1.8117764170000328, 1.918236458000024, 3.4983008330000303, 2.6181898330000877, 1.9715813340000068, 2.4384476669999913, 4.389767708000022, 2.8131406669999706, 1.8499339579999514, 1.8309580420000202, 2.210805583000024, 1.9936986250000928, 1.5530533339999693]",149.32534416700003,1,001,2023-11-09_11h08.52.731,Intentional_binding,2022.2.5,None,
0.1,400,unexp,2,5,29,0,150.87122175000002,151.86082266699998,151.86082266699998,151.86082266699998,space,0.8155765829999382,152.78837300066667,153.12191999999993,153.12191999999993,153.12191999999993,200,30,"[3.9612834580000253, 3.3855182500000183, 2.205716209000002, 2.3895200000000614, 2.880322417000002, 2.6793477919999305, 2.6689032079999606, 2.153580624999904, 2.8577587500000163, 2.798388791999969, 1.8957115829999793, 2.5001290410000365, 3.1194625839999617, 2.141895708999982, 1.8345965409999963, 2.3593643330000305, 1.8117736670000113, 1.918233999999984, 3.4982977079999955, 2.6181871250000768, 1.9715783750000355, 2.438444666999999, 4.389764749999927, 2.813137875000052, 1.8499312499999405, 1.8309546670000145, 2.2108029170000236, 1.9936957080000184, 1.55305070899999, 3.923274458999913]","[3.9612862500000574, 3.385520917000008, 2.205719042000055, 2.389522750000083, 2.8803254580000157, 2.679350541999952, 2.668905957999982, 2.1535833339999044, 2.8577617500000088, 2.7983922079999957, 1.8957142079999585, 2.5001316249999945, 3.1194655000000466, 2.141897874999927, 1.834599207999986, 2.359367249999991, 1.8117764170000328, 1.918236458000024, 3.4983008330000303, 2.6181898330000877, 1.9715813340000068, 2.4384476669999913, 4.389767708000022, 2.8131406669999706, 1.8499339579999514, 1.8309580420000202, 2.210805583000024, 1.9936986250000928, 1.5530533339999693, 3.923277124999913]",,1,001,2023-11-09_11h08.52.731,Intentional_binding,2022.2.5,None,
0.7,1000,exp,2,6,30,5,157.03824774999998,158.027732959,158.027732959,158.027732959,space,0.4569776250000359,159.19460625066668,159.52072837499998,159.52072837499998,159.52072837499998,500,31,"[3.9612834580000253, 3.3855182500000183, 2.205716209000002, 2.3895200000000614, 2.880322417000002, 2.6793477919999305, 2.6689032079999606, 2.153580624999904, 2.8577587500000163, 2.798388791999969, 1.8957115829999793, 2.5001290410000365, 3.1194625839999617, 2.141895708999982, 1.8345965409999963, 2.3593643330000305, 1.8117736670000113, 1.918233999999984, 3.4982977079999955, 2.6181871250000768, 1.9715783750000355, 2.438444666999999, 4.389764749999927, 2.813137875000052, 1.8499312499999405, 1.8309546670000145, 2.2108029170000236, 1.9936957080000184, 1.55305070899999, 3.923274458999913, 5.6079955829999335]","[3.9612862500000574, 3.385520917000008, 2.205719042000055, 2.389522750000083, 2.8803254580000157, 2.679350541999952, 2.668905957999982, 2.1535833339999044, 2.8577617500000088, 2.7983922079999957, 1.8957142079999585, 2.5001316249999945, 3.1194655000000466, 2.141897874999927, 1.834599207999986, 2.359367249999991, 1.8117764170000328, 1.918236458000024, 3.4983008330000303, 2.6181898330000877, 1.9715813340000068, 2.4384476669999913, 4.389767708000022, 2.8131406669999706, 1.8499339579999514, 1.8309580420000202, 2.210805583000024, 1.9936986250000928, 1.5530533339999693, 3.923277124999913, 5.607998707999968]",,1,001,2023-11-09_11h08.52.731,Intentional_binding,2022.2.5,None,
0.1,1000,exp,2,7,31,3,165.12163799999996,166.11134608399993,166.11134608399993,166.11134608399993,space,0.3607768329999317,166.5778379166667,166.91585033399997,166.91585033399997,166.91585033399997,100,32,"[3.9612834580000253, 3.3855182500000183, 2.205716209000002, 2.3895200000000614, 2.880322417000002, 2.6793477919999305, 2.6689032079999606, 2.153580624999904, 2.8577587500000163, 2.798388791999969, 1.8957115829999793, 2.5001290410000365, 3.1194625839999617, 2.141895708999982, 1.8345965409999963, 2.3593643330000305, 1.8117736670000113, 1.918233999999984, 3.4982977079999955, 2.6181871250000768, 1.9715783750000355, 2.438444666999999, 4.389764749999927, 2.813137875000052, 1.8499312499999405, 1.8309546670000145, 2.2108029170000236, 1.9936957080000184, 1.55305070899999, 3.923274458999913, 5.6079955829999335, 2.862004707999972]","[3.9612862500000574, 3.385520917000008, 2.205719042000055, 2.389522750000083, 2.8803254580000157, 2.679350541999952, 2.668905957999982, 2.1535833339999044, 2.8577617500000088, 2.7983922079999957, 1.8957142079999585, 2.5001316249999945, 3.1194655000000466, 2.141897874999927, 1.834599207999986, 2.359367249999991, 1.8117764170000328, 1.918236458000024, 3.4983008330000303, 2.6181898330000877, 1.9715813340000068, 2.4384476669999913, 4.389767708000022, 2.8131406669999706, 1.8499339579999514, 1.8309580420000202, 2.210805583000024, 1.9936986250000928, 1.5530533339999693, 3.923277124999913, 5.607998707999968, 2.8620073329999514]",166.91585033399997,1,001,2023-11-09_11h08.52.731,Intentional_binding,2022.2.5,None,
0.4,400,unexp,2,8,32,1,169.77199054200003,170.76165479199994,170.76165479199994,170.76165479199994,space,0.46853012500002933,171.6445578336667,171.97756712499995,171.97756712499995,171.97756712499995,300,33,"[3.9612834580000253, 3.3855182500000183, 2.205716209000002, 2.3895200000000614, 2.880322417000002, 2.6793477919999305, 2.6689032079999606, 2.153580624999904, 2.8577587500000163, 2.798388791999969, 1.8957115829999793, 2.5001290410000365, 3.1194625839999617, 2.141895708999982, 1.8345965409999963, 2.3593643330000305, 1.8117736670000113, 1.918233999999984, 3.4982977079999955, 2.6181871250000768, 1.9715783750000355, 2.438444666999999, 4.389764749999927, 2.813137875000052, 1.8499312499999405, 1.8309546670000145, 2.2108029170000236, 1.9936957080000184, 1.55305070899999, 3.923274458999913, 5.6079955829999335, 2.862004707999972, 3.73382704200003]","[3.9612862500000574, 3.385520917000008, 2.205719042000055, 2.389522750000083, 2.8803254580000157, 2.679350541999952, 2.668905957999982, 2.1535833339999044, 2.8577617500000088, 2.7983922079999957, 1.8957142079999585, 2.5001316249999945, 3.1194655000000466, 2.141897874999927, 1.834599207999986, 2.359367249999991, 1.8117764170000328, 1.918236458000024, 3.4983008330000303, 2.6181898330000877, 1.9715813340000068, 2.4384476669999913, 4.389767708000022, 2.8131406669999706, 1.8499339579999514, 1.8309580420000202, 2.210805583000024, 1.9936986250000928, 1.5530533339999693, 3.923277124999913, 5.607998707999968, 2.8620073329999514, 3.7338302090000752]",171.97756712499995,1,001,2023-11-09_11h08.52.731,Intentional_binding,2022.2.5,None,
0.7,1000,exp,2,9,33,11,175.70547820900003,176.695710792,176.695710792,176.695710792,space,0.5189329159999261,177.92806900066662,178.25957612499997,178.25957612499997,178.25957612499997,400,34,"[3.9612834580000253, 3.3855182500000183, 2.205716209000002, 2.3895200000000614, 2.880322417000002, 2.6793477919999305, 2.6689032079999606, 2.153580624999904, 2.8577587500000163, 2.798388791999969, 1.8957115829999793, 2.5001290410000365, 3.1194625839999617, 2.141895708999982, 1.8345965409999963, 2.3593643330000305, 1.8117736670000113, 1.918233999999984, 3.4982977079999955, 2.6181871250000768, 1.9715783750000355, 2.438444666999999, 4.389764749999927, 2.813137875000052, 1.8499312499999405, 1.8309546670000145, 2.2108029170000236, 1.9936957080000184, 1.55305070899999, 3.923274458999913, 5.6079955829999335, 2.862004707999972, 3.73382704200003, 5.503259500000013]","[3.9612862500000574, 3.385520917000008, 2.205719042000055, 2.389522750000083, 2.8803254580000157, 2.679350541999952, 2.668905957999982, 2.1535833339999044, 2.8577617500000088, 2.7983922079999957, 1.8957142079999585, 2.5001316249999945, 3.1194655000000466, 2.141897874999927, 1.834599207999986, 2.359367249999991, 1.8117764170000328, 1.918236458000024, 3.4983008330000303, 2.6181898330000877, 1.9715813340000068, 2.4384476669999913, 4.389767708000022, 2.8131406669999706, 1.8499339579999514, 1.8309580420000202, 2.210805583000024, 1.9936986250000928, 1.5530533339999693, 3.923277124999913, 5.607998707999968, 2.8620073329999514, 3.7338302090000752, 5.5032624169999735]",,1,001,2023-11-09_11h08.52.731,Intentional_binding,2022.2.5,None,
0.7,400,unexp,2,10,34,2,183.75549845900002,184.74527037500002,184.74527037500002,184.74527037500002,space,0.39023054099993715,185.84492916666662,186.18174595899995,186.18174595899995,186.18174595899995,800,35,"[3.9612834580000253, 3.3855182500000183, 2.205716209000002, 2.3895200000000614, 2.880322417000002, 2.6793477919999305, 2.6689032079999606, 2.153580624999904, 2.8577587500000163, 2.798388791999969, 1.8957115829999793, 2.5001290410000365, 3.1194625839999617, 2.141895708999982, 1.8345965409999963, 2.3593643330000305, 1.8117736670000113, 1.918233999999984, 3.4982977079999955, 2.6181871250000768, 1.9715783750000355, 2.438444666999999, 4.389764749999927, 2.813137875000052, 1.8499312499999405, 1.8309546670000145, 2.2108029170000236, 1.9936957080000184, 1.55305070899999, 3.923274458999913, 5.6079955829999335, 2.862004707999972, 3.73382704200003, 5.503259500000013, 4.781252957999982]","[3.9612862500000574, 3.385520917000008, 2.205719042000055, 2.389522750000083, 2.8803254580000157, 2.679350541999952, 2.668905957999982, 2.1535833339999044, 2.8577617500000088, 2.7983922079999957, 1.8957142079999585, 2.5001316249999945, 3.1194655000000466, 2.141897874999927, 1.834599207999986, 2.359367249999991, 1.8117764170000328, 1.918236458000024, 3.4983008330000303, 2.6181898330000877, 1.9715813340000068, 2.4384476669999913, 4.389767708000022, 2.8131406669999706, 1.8499339579999514, 1.8309580420000202, 2.210805583000024, 1.9936986250000928, 1.5530533339999693, 3.923277124999913, 5.607998707999968, 2.8620073329999514, 3.7338302090000752, 5.5032624169999735, 4.781255708000003]",186.18174595899995,1,001,2023-11-09_11h08.52.731,Intentional_binding,2022.2.5,None,
0.7,1000,exp,2,11,35,8,190.95590683399996,191.946477167,191.946477167,191.946477167,space,0.34348391699995773,192.9957603756666,193.33785862499997,193.33785862499997,193.33785862499997,400,36,"[3.9612834580000253, 3.3855182500000183, 2.205716209000002, 2.3895200000000614, 2.880322417000002, 2.6793477919999305, 2.6689032079999606, 2.153580624999904, 2.8577587500000163, 2.798388791999969, 1.8957115829999793, 2.5001290410000365, 3.1194625839999617, 2.141895708999982, 1.8345965409999963, 2.3593643330000305, 1.8117736670000113, 1.918233999999984, 3.4982977079999955, 2.6181871250000768, 1.9715783750000355, 2.438444666999999, 4.389764749999927, 2.813137875000052, 1.8499312499999405, 1.8309546670000145, 2.2108029170000236, 1.9936957080000184, 1.55305070899999, 3.923274458999913, 5.6079955829999335, 2.862004707999972, 3.73382704200003, 5.503259500000013, 4.781252957999982, 2.6593345409999074]","[3.9612862500000574, 3.385520917000008, 2.205719042000055, 2.389522750000083, 2.8803254580000157, 2.679350541999952, 2.668905957999982, 2.1535833339999044, 2.8577617500000088, 2.7983922079999957, 1.8957142079999585, 2.5001316249999945, 3.1194655000000466, 2.141897874999927, 1.834599207999986, 2.359367249999991, 1.8117764170000328, 1.918236458000024, 3.4983008330000303, 2.6181898330000877, 1.9715813340000068, 2.4384476669999913, 4.389767708000022, 2.8131406669999706, 1.8499339579999514, 1.8309580420000202, 2.210805583000024, 1.9936986250000928, 1.5530533339999693, 3.923277124999913, 5.607998707999968, 2.8620073329999514, 3.7338302090000752, 5.5032624169999735, 4.781255708000003, 2.659338790999982]",193.33785862499997,1,001,2023-11-09_11h08.52.731,Intentional_binding,2022.2.5,None,
0.1,1000,exp,3,0,36,9,195.989345459,196.98072212499994,196.98072212499994,196.98072212499994,space,0.6924740829999791,197.7788254586666,198.11597970899993,198.11597970899993,198.11597970899993,100,37,"[3.9612834580000253, 3.3855182500000183, 2.205716209000002, 2.3895200000000614, 2.880322417000002, 2.6793477919999305, 2.6689032079999606, 2.153580624999904, 2.8577587500000163, 2.798388791999969, 1.8957115829999793, 2.5001290410000365, 3.1194625839999617, 2.141895708999982, 1.8345965409999963, 2.3593643330000305, 1.8117736670000113, 1.918233999999984, 3.4982977079999955, 2.6181871250000768, 1.9715783750000355, 2.438444666999999, 4.389764749999927, 2.813137875000052, 1.8499312499999405, 1.8309546670000145, 2.2108029170000236, 1.9936957080000184, 1.55305070899999, 3.923274458999913, 5.6079955829999335, 2.862004707999972, 3.73382704200003, 5.503259500000013, 4.781252957999982, 2.6593345409999074, 1.9816687920000504]","[3.9612862500000574, 3.385520917000008, 2.205719042000055, 2.389522750000083, 2.8803254580000157, 2.679350541999952, 2.668905957999982, 2.1535833339999044, 2.8577617500000088, 2.7983922079999957, 1.8957142079999585, 2.5001316249999945, 3.1194655000000466, 2.141897874999927, 1.834599207999986, 2.359367249999991, 1.8117764170000328, 1.918236458000024, 3.4983008330000303, 2.6181898330000877, 1.9715813340000068, 2.4384476669999913, 4.389767708000022, 2.8131406669999706, 1.8499339579999514, 1.8309580420000202, 2.210805583000024, 1.9936986250000928, 1.5530533339999693, 3.923277124999913, 5.607998707999968, 2.8620073329999514, 3.7338302090000752, 5.5032624169999735, 4.781255708000003, 2.659338790999982, 1.9816717500000323]",198.11597970899993,1,001,2023-11-09_11h08.52.731,Intentional_binding,2022.2.5,None,
0.1,1000,exp,3,1,37,3,200.08936583399998,201.0794115,201.0794115,201.0794115,space,0.3529557909999994,201.54435362566667,201.87160008399997,201.87160008399997,201.87160008399997,100,38,"[3.9612834580000253, 3.3855182500000183, 2.205716209000002, 2.3895200000000614, 2.880322417000002, 2.6793477919999305, 2.6689032079999606, 2.153580624999904, 2.8577587500000163, 2.798388791999969, 1.8957115829999793, 2.5001290410000365, 3.1194625839999617, 2.141895708999982, 1.8345965409999963, 2.3593643330000305, 1.8117736670000113, 1.918233999999984, 3.4982977079999955, 2.6181871250000768, 1.9715783750000355, 2.438444666999999, 4.389764749999927, 2.813137875000052, 1.8499312499999405, 1.8309546670000145, 2.2108029170000236, 1.9936957080000184, 1.55305070899999, 3.923274458999913, 5.6079955829999335, 2.862004707999972, 3.73382704200003, 5.503259500000013, 4.781252957999982, 2.6593345409999074, 1.9816687920000504, 1.6915099169999621]","[3.9612862500000574, 3.385520917000008, 2.205719042000055, 2.389522750000083, 2.8803254580000157, 2.679350541999952, 2.668905957999982, 2.1535833339999044, 2.8577617500000088, 2.7983922079999957, 1.8957142079999585, 2.5001316249999945, 3.1194655000000466, 2.141897874999927, 1.834599207999986, 2.359367249999991, 1.8117764170000328, 1.918236458000024, 3.4983008330000303, 2.6181898330000877, 1.9715813340000068, 2.4384476669999913, 4.389767708000022, 2.8131406669999706, 1.8499339579999514, 1.8309580420000202, 2.210805583000024, 1.9936986250000928, 1.5530533339999693, 3.923277124999913, 5.607998707999968, 2.8620073329999514, 3.7338302090000752, 5.5032624169999735, 4.781255708000003, 2.659338790999982, 1.9816717500000323, 1.6915127500000153]",,1,001,2023-11-09_11h08.52.731,Intentional_binding,2022.2.5,None,
0.7,400,unexp,3,2,38,2,203.55621004199998,204.546095542,204.546095542,204.546095542,space,0.3854891249999355,205.6460961666667,205.990255584,205.990255584,205.990255584,600,39,"[3.9612834580000253, 3.3855182500000183, 2.205716209000002, 2.3895200000000614, 2.880322417000002, 2.6793477919999305, 2.6689032079999606, 2.153580624999904, 2.8577587500000163, 2.798388791999969, 1.8957115829999793, 2.5001290410000365, 3.1194625839999617, 2.141895708999982, 1.8345965409999963, 2.3593643330000305, 1.8117736670000113, 1.918233999999984, 3.4982977079999955, 2.6181871250000768, 1.9715783750000355, 2.438444666999999, 4.389764749999927, 2.813137875000052, 1.8499312499999405, 1.8309546670000145, 2.2108029170000236, 1.9936957080000184, 1.55305070899999, 3.923274458999913, 5.6079955829999335, 2.862004707999972, 3.73382704200003, 5.503259500000013, 4.781252957999982, 2.6593345409999074, 1.9816687920000504, 1.6915099169999621, 2.0239914580000686]","[3.9612862500000574, 3.385520917000008, 2.205719042000055, 2.389522750000083, 2.8803254580000157, 2.679350541999952, 2.668905957999982, 2.1535833339999044, 2.8577617500000088, 2.7983922079999957, 1.8957142079999585, 2.5001316249999945, 3.1194655000000466, 2.141897874999927, 1.834599207999986, 2.359367249999991, 1.8117764170000328, 1.918236458000024, 3.4983008330000303, 2.6181898330000877, 1.9715813340000068, 2.4384476669999913, 4.389767708000022, 2.8131406669999706, 1.8499339579999514, 1.8309580420000202, 2.210805583000024, 1.9936986250000928, 1.5530533339999693, 3.923277124999913, 5.607998707999968, 2.8620073329999514, 3.7338302090000752, 5.5032624169999735, 4.781255708000003, 2.659338790999982, 1.9816717500000323, 1.6915127500000153, 2.023994249999987]",,1,001,2023-11-09_11h08.52.731,Intentional_binding,2022.2.5,None,
0.7,1000,exp,3,3,39,8,208.006396375,208.99588725,208.99588725,208.99588725,space,0.3940214169999763,210.09547295866665,210.43207158400003,210.43207158400003,210.43207158400003,400,40,"[3.9612834580000253, 3.3855182500000183, 2.205716209000002, 2.3895200000000614, 2.880322417000002, 2.6793477919999305, 2.6689032079999606, 2.153580624999904, 2.8577587500000163, 2.798388791999969, 1.8957115829999793, 2.5001290410000365, 3.1194625839999617, 2.141895708999982, 1.8345965409999963, 2.3593643330000305, 1.8117736670000113, 1.918233999999984, 3.4982977079999955, 2.6181871250000768, 1.9715783750000355, 2.438444666999999, 4.389764749999927, 2.813137875000052, 1.8499312499999405, 1.8309546670000145, 2.2108029170000236, 1.9936957080000184, 1.55305070899999, 3.923274458999913, 5.6079955829999335, 2.862004707999972, 3.73382704200003, 5.503259500000013, 4.781252957999982, 2.6593345409999074, 1.9816687920000504, 1.6915099169999621, 2.0239914580000686, 2.9501547500000243]","[3.9612862500000574, 3.385520917000008, 2.205719042000055, 2.389522750000083, 2.8803254580000157, 2.679350541999952, 2.668905957999982, 2.1535833339999044, 2.8577617500000088, 2.7983922079999957, 1.8957142079999585, 2.5001316249999945, 3.1194655000000466, 2.141897874999927, 1.834599207999986, 2.359367249999991, 1.8117764170000328, 1.918236458000024, 3.4983008330000303, 2.6181898330000877, 1.9715813340000068, 2.4384476669999913, 4.389767708000022, 2.8131406669999706, 1.8499339579999514, 1.8309580420000202, 2.210805583000024, 1.9936986250000928, 1.5530533339999693, 3.923277124999913, 5.607998707999968, 2.8620073329999514, 3.7338302090000752, 5.5032624169999735, 4.781255708000003, 2.659338790999982, 1.9816717500000323, 1.6915127500000153, 2.023994249999987, 2.9501576659999955]",,1,001,2023-11-09_11h08.52.731,Intentional_binding,2022.2.5,None,
0.1,1000,exp,3,4,40,6,213.373147667,214.36385612499998,214.36385612499998,214.36385612499998,space,0.9562456669999619,215.42892912566666,215.763168792,215.763168792,215.763168792,100,41,"[3.9612834580000253, 3.3855182500000183, 2.205716209000002, 2.3895200000000614, 2.880322417000002, 2.6793477919999305, 2.6689032079999606, 2.153580624999904, 2.8577587500000163, 2.798388791999969, 1.8957115829999793, 2.5001290410000365, 3.1194625839999617, 2.141895708999982, 1.8345965409999963, 2.3593643330000305, 1.8117736670000113, 1.918233999999984, 3.4982977079999955, 2.6181871250000768, 1.9715783750000355, 2.438444666999999, 4.389764749999927, 2.813137875000052, 1.8499312499999405, 1.8309546670000145, 2.2108029170000236, 1.9936957080000184, 1.55305070899999, 3.923274458999913, 5.6079955829999335, 2.862004707999972, 3.73382704200003, 5.503259500000013, 4.781252957999982, 2.6593345409999074, 1.9816687920000504, 1.6915099169999621, 2.0239914580000686, 2.9501547500000243, 1.483794458000034]","[3.9612862500000574, 3.385520917000008, 2.205719042000055, 2.389522750000083, 2.8803254580000157, 2.679350541999952, 2.668905957999982, 2.1535833339999044, 2.8577617500000088, 2.7983922079999957, 1.8957142079999585, 2.5001316249999945, 3.1194655000000466, 2.141897874999927, 1.834599207999986, 2.359367249999991, 1.8117764170000328, 1.918236458000024, 3.4983008330000303, 2.6181898330000877, 1.9715813340000068, 2.4384476669999913, 4.389767708000022, 2.8131406669999706, 1.8499339579999514, 1.8309580420000202, 2.210805583000024, 1.9936986250000928, 1.5530533339999693, 3.923277124999913, 5.607998707999968, 2.8620073329999514, 3.7338302090000752, 5.5032624169999735, 4.781255708000003, 2.659338790999982, 1.9816717500000323, 1.6915127500000153, 2.023994249999987, 2.9501576659999955, 1.4837971670000343]",,1,001,2023-11-09_11h08.52.731,Intentional_binding,2022.2.5,None,
0.7,1000,exp,3,5,41,11,217.23982354199995,218.23103216699997,218.23103216699997,218.23103216699997,space,0.8454701250000198,219.79065479166664,220.12445283399995,220.12445283399995,220.12445283399995,600,42,"[3.9612834580000253, 3.3855182500000183, 2.205716209000002, 2.3895200000000614, 2.880322417000002, 2.6793477919999305, 2.6689032079999606, 2.153580624999904, 2.8577587500000163, 2.798388791999969, 1.8957115829999793, 2.5001290410000365, 3.1194625839999617, 2.141895708999982, 1.8345965409999963, 2.3593643330000305, 1.8117736670000113, 1.918233999999984, 3.4982977079999955, 2.6181871250000768, 1.9715783750000355, 2.438444666999999, 4.389764749999927, 2.813137875000052, 1.8499312499999405, 1.8309546670000145, 2.2108029170000236, 1.9936957080000184, 1.55305070899999, 3.923274458999913, 5.6079955829999335, 2.862004707999972, 3.73382704200003, 5.503259500000013, 4.781252957999982, 2.6593345409999074, 1.9816687920000504, 1.6915099169999621, 2.0239914580000686, 2.9501547500000243, 1.483794458000034, 2.0568435830000453]","[3.9612862500000574, 3.385520917000008, 2.205719042000055, 2.389522750000083, 2.8803254580000157, 2.679350541999952, 2.668905957999982, 2.1535833339999044, 2.8577617500000088, 2.7983922079999957, 1.8957142079999585, 2.5001316249999945, 3.1194655000000466, 2.141897874999927, 1.834599207999986, 2.359367249999991, 1.8117764170000328, 1.918236458000024, 3.4983008330000303, 2.6181898330000877, 1.9715813340000068, 2.4384476669999913, 4.389767708000022, 2.8131406669999706, 1.8499339579999514, 1.8309580420000202, 2.210805583000024, 1.9936986250000928, 1.5530533339999693, 3.923277124999913, 5.607998707999968, 2.8620073329999514, 3.7338302090000752, 5.5032624169999735, 4.781255708000003, 2.659338790999982, 1.9816717500000323, 1.6915127500000153, 2.023994249999987, 2.9501576659999955, 1.4837971670000343, 2.0568468330000087]",,1,001,2023-11-09_11h08.52.731,Intentional_binding,2022.2.5,None,
0.4,1000,exp,3,6,42,7,222.17402162500002,223.162897875,223.162897875,223.162897875,space,0.7219839159999992,224.29629262566667,224.62957158400002,224.62957158400002,224.62957158400002,400,43,"[3.9612834580000253, 3.3855182500000183, 2.205716209000002, 2.3895200000000614, 2.880322417000002, 2.6793477919999305, 2.6689032079999606, 2.153580624999904, 2.8577587500000163, 2.798388791999969, 1.8957115829999793, 2.5001290410000365, 3.1194625839999617, 2.141895708999982, 1.8345965409999963, 2.3593643330000305, 1.8117736670000113, 1.918233999999984, 3.4982977079999955, 2.6181871250000768, 1.9715783750000355, 2.438444666999999, 4.389764749999927, 2.813137875000052, 1.8499312499999405, 1.8309546670000145, 2.2108029170000236, 1.9936957080000184, 1.55305070899999, 3.923274458999913, 5.6079955829999335, 2.862004707999972, 3.73382704200003, 5.503259500000013, 4.781252957999982, 2.6593345409999074, 1.9816687920000504, 1.6915099169999621, 2.0239914580000686, 2.9501547500000243, 1.483794458000034, 2.0568435830000453, 2.450641874999974]","[3.9612862500000574, 3.385520917000008, 2.205719042000055, 2.389522750000083, 2.8803254580000157, 2.679350541999952, 2.668905957999982, 2.1535833339999044, 2.8577617500000088, 2.7983922079999957, 1.8957142079999585, 2.5001316249999945, 3.1194655000000466, 2.141897874999927, 1.834599207999986, 2.359367249999991, 1.8117764170000328, 1.918236458000024, 3.4983008330000303, 2.6181898330000877, 1.9715813340000068, 2.4384476669999913, 4.389767708000022, 2.8131406669999706, 1.8499339579999514, 1.8309580420000202, 2.210805583000024, 1.9936986250000928, 1.5530533339999693, 3.923277124999913, 5.607998707999968, 2.8620073329999514, 3.7338302090000752, 5.5032624169999735, 4.781255708000003, 2.659338790999982, 1.9816717500000323, 1.6915127500000153, 2.023994249999987, 2.9501576659999955, 1.4837971670000343, 2.0568468330000087, 2.450644665999903]",224.62957158400002,1,001,2023-11-09_11h08.52.731,Intentional_binding,2022.2.5,None,
0.4,1000,exp,3,7,43,10,227.07368508399998,228.063559209,228.063559209,228.063559209,space,0.5180220419999841,228.9954567916666,229.328257334,229.328257334,229.328257334,200,44,"[3.9612834580000253, 3.3855182500000183, 2.205716209000002, 2.3895200000000614, 2.880322417000002, 2.6793477919999305, 2.6689032079999606, 2.153580624999904, 2.8577587500000163, 2.798388791999969, 1.8957115829999793, 2.5001290410000365, 3.1194625839999617, 2.141895708999982, 1.8345965409999963, 2.3593643330000305, 1.8117736670000113, 1.918233999999984, 3.4982977079999955, 2.6181871250000768, 1.9715783750000355, 2.438444666999999, 4.389764749999927, 2.813137875000052, 1.8499312499999405, 1.8309546670000145, 2.2108029170000236, 1.9936957080000184, 1.55305070899999, 3.923274458999913, 5.6079955829999335, 2.862004707999972, 3.73382704200003, 5.503259500000013, 4.781252957999982, 2.6593345409999074, 1.9816687920000504, 1.6915099169999621, 2.0239914580000686, 2.9501547500000243, 1.483794458000034, 2.0568435830000453, 2.450641874999974, 1.8197601250000162]","[3.9612862500000574, 3.385520917000008, 2.205719042000055, 2.389522750000083, 2.8803254580000157, 2.679350541999952, 2.668905957999982, 2.1535833339999044, 2.8577617500000088, 2.7983922079999957, 1.8957142079999585, 2.5001316249999945, 3.1194655000000466, 2.141897874999927, 1.834599207999986, 2.359367249999991, 1.8117764170000328, 1.918236458000024, 3.4983008330000303, 2.6181898330000877, 1.9715813340000068, 2.4384476669999913, 4.389767708000022, 2.8131406669999706, 1.8499339579999514, 1.8309580420000202, 2.210805583000024, 1.9936986250000928, 1.5530533339999693, 3.923277124999913, 5.607998707999968, 2.8620073329999514, 3.7338302090000752, 5.5032624169999735, 4.781255708000003, 2.659338790999982, 1.9816717500000323, 1.6915127500000153, 2.023994249999987, 2.9501576659999955, 1.4837971670000343, 2.0568468330000087, 2.450644665999903, 1.8197631670000192]",229.328257334,1,001,2023-11-09_11h08.52.731,Intentional_binding,2022.2.5,None,
0.4,400,unexp,3,8,44,1,231.14043804200003,232.12980133400004,232.12980133400004,232.12980133400004,space,0.31528624999998556,232.8576808756666,233.19293416699998,233.19293416699998,233.19293416699998,200,45,"[3.9612834580000253, 3.3855182500000183, 2.205716209000002, 2.3895200000000614, 2.880322417000002, 2.6793477919999305, 2.6689032079999606, 2.153580624999904, 2.8577587500000163, 2.798388791999969, 1.8957115829999793, 2.5001290410000365, 3.1194625839999617, 2.141895708999982, 1.8345965409999963, 2.3593643330000305, 1.8117736670000113, 1.918233999999984, 3.4982977079999955, 2.6181871250000768, 1.9715783750000355, 2.438444666999999, 4.389764749999927, 2.813137875000052, 1.8499312499999405, 1.8309546670000145, 2.2108029170000236, 1.9936957080000184, 1.55305070899999, 3.923274458999913, 5.6079955829999335, 2.862004707999972, 3.73382704200003, 5.503259500000013, 4.781252957999982, 2.6593345409999074, 1.9816687920000504, 1.6915099169999621, 2.0239914580000686, 2.9501547500000243, 1.483794458000034, 2.0568435830000453, 2.450641874999974, 1.8197601250000162, 2.1217672920000723]","[3.9612862500000574, 3.385520917000008, 2.205719042000055, 2.389522750000083, 2.8803254580000157, 2.679350541999952, 2.668905957999982, 2.1535833339999044, 2.8577617500000088, 2.7983922079999957, 1.8957142079999585, 2.5001316249999945, 3.1194655000000466, 2.141897874999927, 1.834599207999986, 2.359367249999991, 1.8117764170000328, 1.918236458000024, 3.4983008330000303, 2.6181898330000877, 1.9715813340000068, 2.4384476669999913, 4.389767708000022, 2.8131406669999706, 1.8499339579999514, 1.8309580420000202, 2.210805583000024, 1.9936986250000928, 1.5530533339999693, 3.923277124999913, 5.607998707999968, 2.8620073329999514, 3.7338302090000752, 5.5032624169999735, 4.781255708000003, 2.659338790999982, 1.9816717500000323, 1.6915127500000153, 2.023994249999987, 2.9501576659999955, 1.4837971670000343, 2.0568468330000087, 2.450644665999903, 1.8197631670000192, 2.1217699999999695]",,1,001,2023-11-09_11h08.52.731,Intentional_binding,2022.2.5,None,
0.4,1000,exp,3,9,45,4,235.30774262499995,236.29689633399994,236.29689633399994,236.29689633399994,space,0.2620555419999846,236.96391000066663,237.294480334,237.294480334,237.294480334,300,46,"[3.9612834580000253, 3.3855182500000183, 2.205716209000002, 2.3895200000000614, 2.880322417000002, 2.6793477919999305, 2.6689032079999606, 2.153580624999904, 2.8577587500000163, 2.798388791999969, 1.8957115829999793, 2.5001290410000365, 3.1194625839999617, 2.141895708999982, 1.8345965409999963, 2.3593643330000305, 1.8117736670000113, 1.918233999999984, 3.4982977079999955, 2.6181871250000768, 1.9715783750000355, 2.438444666999999, 4.389764749999927, 2.813137875000052, 1.8499312499999405, 1.8309546670000145, 2.2108029170000236, 1.9936957080000184, 1.55305070899999, 3.923274458999913, 5.6079955829999335, 2.862004707999972, 3.73382704200003, 5.503259500000013, 4.781252957999982, 2.6593345409999074, 1.9816687920000504, 1.6915099169999621, 2.0239914580000686, 2.9501547500000243, 1.483794458000034, 2.0568435830000453, 2.450641874999974, 1.8197601250000162, 2.1217672920000723, 2.8211645830000407]","[3.9612862500000574, 3.385520917000008, 2.205719042000055, 2.389522750000083, 2.8803254580000157, 2.679350541999952, 2.668905957999982, 2.1535833339999044, 2.8577617500000088, 2.7983922079999957, 1.8957142079999585, 2.5001316249999945, 3.1194655000000466, 2.141897874999927, 1.834599207999986, 2.359367249999991, 1.8117764170000328, 1.918236458000024, 3.4983008330000303, 2.6181898330000877, 1.9715813340000068, 2.4384476669999913, 4.389767708000022, 2.8131406669999706, 1.8499339579999514, 1.8309580420000202, 2.210805583000024, 1.9936986250000928, 1.5530533339999693, 3.923277124999913, 5.607998707999968, 2.8620073329999514, 3.7338302090000752, 5.5032624169999735, 4.781255708000003, 2.659338790999982, 1.9816717500000323, 1.6915127500000153, 2.023994249999987, 2.9501576659999955, 1.4837971670000343, 2.0568468330000087, 2.450644665999903, 1.8197631670000192, 2.1217699999999695, 2.82116720800002]",237.294480334,1,001,2023-11-09_11h08.52.731,Intentional_binding,2022.2.5,None,
0.1,400,unexp,3,10,46,0,240.10739058399997,241.096674667,241.096674667,241.096674667,space,0.3951583749999372,241.6078863336667,241.93776941700003,241.93776941700003,241.93776941700003,100,47,"[3.9612834580000253, 3.3855182500000183, 2.205716209000002, 2.3895200000000614, 2.880322417000002, 2.6793477919999305, 2.6689032079999606, 2.153580624999904, 2.8577587500000163, 2.798388791999969, 1.8957115829999793, 2.5001290410000365, 3.1194625839999617, 2.141895708999982, 1.8345965409999963, 2.3593643330000305, 1.8117736670000113, 1.918233999999984, 3.4982977079999955, 2.6181871250000768, 1.9715783750000355, 2.438444666999999, 4.389764749999927, 2.813137875000052, 1.8499312499999405, 1.8309546670000145, 2.2108029170000236, 1.9936957080000184, 1.55305070899999, 3.923274458999913, 5.6079955829999335, 2.862004707999972, 3.73382704200003, 5.503259500000013, 4.781252957999982, 2.6593345409999074, 1.9816687920000504, 1.6915099169999621, 2.0239914580000686, 2.9501547500000243, 1.483794458000034, 2.0568435830000453, 2.450641874999974, 1.8197601250000162, 2.1217672920000723, 2.8211645830000407, 2.160443125000029]","[3.9612862500000574, 3.385520917000008, 2.205719042000055, 2.389522750000083, 2.8803254580000157, 2.679350541999952, 2.668905957999982, 2.1535833339999044, 2.8577617500000088, 2.7983922079999957, 1.8957142079999585, 2.5001316249999945, 3.1194655000000466, 2.141897874999927, 1.834599207999986, 2.359367249999991, 1.8117764170000328, 1.918236458000024, 3.4983008330000303, 2.6181898330000877, 1.9715813340000068, 2.4384476669999913, 4.389767708000022, 2.8131406669999706, 1.8499339579999514, 1.8309580420000202, 2.210805583000024, 1.9936986250000928, 1.5530533339999693, 3.923277124999913, 5.607998707999968, 2.8620073329999514, 3.7338302090000752, 5.5032624169999735, 4.781255708000003, 2.659338790999982, 1.9816717500000323, 1.6915127500000153, 2.023994249999987, 2.9501576659999955, 1.4837971670000343, 2.0568468330000087, 2.450644665999903, 1.8197631670000192, 2.1217699999999695, 2.82116720800002, 2.160446292000074]",241.93776941700003,1,001,2023-11-09_11h08.52.731,Intentional_binding,2022.2.5,None,
0.7,1000,exp,3,11,47,5,244.09075845899997,245.080895875,245.080895875,245.080895875,space,0.3052930420000166,246.09683745866667,246.422853959,246.422853959,246.422853959,500,48,"[3.9612834580000253, 3.3855182500000183, 2.205716209000002, 2.3895200000000614, 2.880322417000002, 2.6793477919999305, 2.6689032079999606, 2.153580624999904, 2.8577587500000163, 2.798388791999969, 1.8957115829999793, 2.5001290410000365, 3.1194625839999617, 2.141895708999982, 1.8345965409999963, 2.3593643330000305, 1.8117736670000113, 1.918233999999984, 3.4982977079999955, 2.6181871250000768, 1.9715783750000355, 2.438444666999999, 4.389764749999927, 2.813137875000052, 1.8499312499999405, 1.8309546670000145, 2.2108029170000236, 1.9936957080000184, 1.55305070899999, 3.923274458999913, 5.6079955829999335, 2.862004707999972, 3.73382704200003, 5.503259500000013, 4.781252957999982, 2.6593345409999074, 1.9816687920000504, 1.6915099169999621, 2.0239914580000686, 2.9501547500000243, 1.483794458000034, 2.0568435830000453, 2.450641874999974, 1.8197601250000162, 2.1217672920000723, 2.8211645830000407, 2.160443125000029, 2.9591334579999966]","[3.9612862500000574, 3.385520917000008, 2.205719042000055, 2.389522750000083, 2.8803254580000157, 2.679350541999952, 2.668905957999982, 2.1535833339999044, 2.8577617500000088, 2.7983922079999957, 1.8957142079999585, 2.5001316249999945, 3.1194655000000466, 2.141897874999927, 1.834599207999986, 2.359367249999991, 1.8117764170000328, 1.918236458000024, 3.4983008330000303, 2.6181898330000877, 1.9715813340000068, 2.4384476669999913, 4.389767708000022, 2.8131406669999706, 1.8499339579999514, 1.8309580420000202, 2.210805583000024, 1.9936986250000928, 1.5530533339999693, 3.923277124999913, 5.607998707999968, 2.8620073329999514, 3.7338302090000752, 5.5032624169999735, 4.781255708000003, 2.659338790999982, 1.9816717500000323, 1.6915127500000153, 2.023994249999987, 2.9501576659999955, 1.4837971670000343, 2.0568468330000087, 2.450644665999903, 1.8197631670000192, 2.1217699999999695, 2.82116720800002, 2.160446292000074, 2.959136375000071]",,1,001,2023-11-09_11h08.52.731,Intentional_binding,2022.2.5,None,
0.7,1000,exp,4,0,48,11,249.374236709,250.36387349999995,250.36387349999995,250.36387349999995,space,0.30595899999991616,251.38067079166663,251.71111062499995,251.71111062499995,251.71111062499995,300,49,"[3.9612834580000253, 3.3855182500000183, 2.205716209000002, 2.3895200000000614, 2.880322417000002, 2.6793477919999305, 2.6689032079999606, 2.153580624999904, 2.8577587500000163, 2.798388791999969, 1.8957115829999793, 2.5001290410000365, 3.1194625839999617, 2.141895708999982, 1.8345965409999963, 2.3593643330000305, 1.8117736670000113, 1.918233999999984, 3.4982977079999955, 2.6181871250000768, 1.9715783750000355, 2.438444666999999, 4.389764749999927, 2.813137875000052, 1.8499312499999405, 1.8309546670000145, 2.2108029170000236, 1.9936957080000184, 1.55305070899999, 3.923274458999913, 5.6079955829999335, 2.862004707999972, 3.73382704200003, 5.503259500000013, 4.781252957999982, 2.6593345409999074, 1.9816687920000504, 1.6915099169999621, 2.0239914580000686, 2.9501547500000243, 1.483794458000034, 2.0568435830000453, 2.450641874999974, 1.8197601250000162, 2.1217672920000723, 2.8211645830000407, 2.160443125000029, 2.9591334579999966, 2.6529014170000664]","[3.9612862500000574, 3.385520917000008, 2.205719042000055, 2.389522750000083, 2.8803254580000157, 2.679350541999952, 2.668905957999982, 2.1535833339999044, 2.8577617500000088, 2.7983922079999957, 1.8957142079999585, 2.5001316249999945, 3.1194655000000466, 2.141897874999927, 1.834599207999986, 2.359367249999991, 1.8117764170000328, 1.918236458000024, 3.4983008330000303, 2.6181898330000877, 1.9715813340000068, 2.4384476669999913, 4.389767708000022, 2.8131406669999706, 1.8499339579999514, 1.8309580420000202, 2.210805583000024, 1.9936986250000928, 1.5530533339999693, 3.923277124999913, 5.607998707999968, 2.8620073329999514, 3.7338302090000752, 5.5032624169999735, 4.781255708000003, 2.659338790999982, 1.9816717500000323, 1.6915127500000153, 2.023994249999987, 2.9501576659999955, 1.4837971670000343, 2.0568468330000087, 2.450644665999903, 1.8197631670000192, 2.1217699999999695, 2.82116720800002, 2.160446292000074, 2.959136375000071, 2.6529046250000192]",251.71111062499995,1,001,2023-11-09_11h08.52.731,Intentional_binding,2022.2.5,None,
0.4,1000,exp,4,1,49,4,254.35783816699995,255.34734549999996,255.34734549999996,255.34734549999996,space,0.3222492920000377,256.0803925416666,256.41003829199997,256.41003829199997,256.41003829199997,100,50,"[3.9612834580000253, 3.3855182500000183, 2.205716209000002, 2.3895200000000614, 2.880322417000002, 2.6793477919999305, 2.6689032079999606, 2.153580624999904, 2.8577587500000163, 2.798388791999969, 1.8957115829999793, 2.5001290410000365, 3.1194625839999617, 2.141895708999982, 1.8345965409999963, 2.3593643330000305, 1.8117736670000113, 1.918233999999984, 3.4982977079999955, 2.6181871250000768, 1.9715783750000355, 2.438444666999999, 4.389764749999927, 2.813137875000052, 1.8499312499999405, 1.8309546670000145, 2.2108029170000236, 1.9936957080000184, 1.55305070899999, 3.923274458999913, 5.6079955829999335, 2.862004707999972, 3.73382704200003, 5.503259500000013, 4.781252957999982, 2.6593345409999074, 1.9816687920000504, 1.6915099169999621, 2.0239914580000686, 2.9501547500000243, 1.483794458000034, 2.0568435830000453, 2.450641874999974, 1.8197601250000162, 2.1217672920000723, 2.8211645830000407, 2.160443125000029, 2.9591334579999966, 2.6529014170000664, 1.8546004579999362]","[3.9612862500000574, 3.385520917000008, 2.205719042000055, 2.389522750000083, 2.8803254580000157, 2.679350541999952, 2.668905957999982, 2.1535833339999044, 2.8577617500000088, 2.7983922079999957, 1.8957142079999585, 2.5001316249999945, 3.1194655000000466, 2.141897874999927, 1.834599207999986, 2.359367249999991, 1.8117764170000328, 1.918236458000024, 3.4983008330000303, 2.6181898330000877, 1.9715813340000068, 2.4384476669999913, 4.389767708000022, 2.8131406669999706, 1.8499339579999514, 1.8309580420000202, 2.210805583000024, 1.9936986250000928, 1.5530533339999693, 3.923277124999913, 5.607998707999968, 2.8620073329999514, 3.7338302090000752, 5.5032624169999735, 4.781255708000003, 2.659338790999982, 1.9816717500000323, 1.6915127500000153, 2.023994249999987, 2.9501576659999955, 1.4837971670000343, 2.0568468330000087, 2.450644665999903, 1.8197631670000192, 2.1217699999999695, 2.82116720800002, 2.160446292000074, 2.959136375000071, 2.6529046250000192, 1.8546034999999392]",256.41003829199997,1,001,2023-11-09_11h08.52.731,Intentional_binding,2022.2.5,None,
0.1,400,unexp,4,2,50,0,258.257916292,259.24741441699996,259.24741441699996,259.24741441699996,space,0.2660657919999494,259.6250119586666,259.963789334,259.963789334,259.963789334,100,51,"[3.9612834580000253, 3.3855182500000183, 2.205716209000002, 2.3895200000000614, 2.880322417000002, 2.6793477919999305, 2.6689032079999606, 2.153580624999904, 2.8577587500000163, 2.798388791999969, 1.8957115829999793, 2.5001290410000365, 3.1194625839999617, 2.141895708999982, 1.8345965409999963, 2.3593643330000305, 1.8117736670000113, 1.918233999999984, 3.4982977079999955, 2.6181871250000768, 1.9715783750000355, 2.438444666999999, 4.389764749999927, 2.813137875000052, 1.8499312499999405, 1.8309546670000145, 2.2108029170000236, 1.9936957080000184, 1.55305070899999, 3.923274458999913, 5.6079955829999335, 2.862004707999972, 3.73382704200003, 5.503259500000013, 4.781252957999982, 2.6593345409999074, 1.9816687920000504, 1.6915099169999621, 2.0239914580000686, 2.9501547500000243, 1.483794458000034, 2.0568435830000453, 2.450641874999974, 1.8197601250000162, 2.1217672920000723, 2.8211645830000407, 2.160443125000029, 2.9591334579999966, 2.6529014170000664, 1.8546004579999362, 1.967478417000052]","[3.9612862500000574, 3.385520917000008, 2.205719042000055, 2.389522750000083, 2.8803254580000157, 2.679350541999952, 2.668905957999982, 2.1535833339999044, 2.8577617500000088, 2.7983922079999957, 1.8957142079999585, 2.5001316249999945, 3.1194655000000466, 2.141897874999927, 1.834599207999986, 2.359367249999991, 1.8117764170000328, 1.918236458000024, 3.4983008330000303, 2.6181898330000877, 1.9715813340000068, 2.4384476669999913, 4.389767708000022, 2.8131406669999706, 1.8499339579999514, 1.8309580420000202, 2.210805583000024, 1.9936986250000928, 1.5530533339999693, 3.923277124999913, 5.607998707999968, 2.8620073329999514, 3.7338302090000752, 5.5032624169999735, 4.781255708000003, 2.659338790999982, 1.9816717500000323, 1.6915127500000153, 2.023994249999987, 2.9501576659999955, 1.4837971670000343, 2.0568468330000087, 2.450644665999903, 1.8197631670000192, 2.1217699999999695, 2.82116720800002, 2.160446292000074, 2.959136375000071, 2.6529046250000192, 1.8546034999999392, 1.967481375000034]",,1,001,2023-11-09_11h08.52.731,Intentional_binding,2022.2.5,None,
0.7,1000,exp,4,3,51,8,261.92461754199996,262.914848625,262.914848625,262.914848625,space,0.3350550420000218,263.9643596256666,264.29792199999997,264.29792199999997,264.29792199999997,600,52,"[3.9612834580000253, 3.3855182500000183, 2.205716209000002, 2.3895200000000614, 2.880322417000002, 2.6793477919999305, 2.6689032079999606, 2.153580624999904, 2.8577587500000163, 2.798388791999969, 1.8957115829999793, 2.5001290410000365, 3.1194625839999617, 2.141895708999982, 1.8345965409999963, 2.3593643330000305, 1.8117736670000113, 1.918233999999984, 3.4982977079999955, 2.6181871250000768, 1.9715783750000355, 2.438444666999999, 4.389764749999927, 2.813137875000052, 1.8499312499999405, 1.8309546670000145, 2.2108029170000236, 1.9936957080000184, 1.55305070899999, 3.923274458999913, 5.6079955829999335, 2.862004707999972, 3.73382704200003, 5.503259500000013, 4.781252957999982, 2.6593345409999074, 1.9816687920000504, 1.6915099169999621, 2.0239914580000686, 2.9501547500000243, 1.483794458000034, 2.0568435830000453, 2.450641874999974, 1.8197601250000162, 2.1217672920000723, 2.8211645830000407, 2.160443125000029, 2.9591334579999966, 2.6529014170000664, 1.8546004579999362, 1.967478417000052, 2.5011707910000496]","[3.9612862500000574, 3.385520917000008, 2.205719042000055, 2.389522750000083, 2.8803254580000157, 2.679350541999952, 2.668905957999982, 2.1535833339999044, 2.8577617500000088, 2.7983922079999957, 1.8957142079999585, 2.5001316249999945, 3.1194655000000466, 2.141897874999927, 1.834599207999986, 2.359367249999991, 1.8117764170000328, 1.918236458000024, 3.4983008330000303, 2.6181898330000877, 1.9715813340000068, 2.4384476669999913, 4.389767708000022, 2.8131406669999706, 1.8499339579999514, 1.8309580420000202, 2.210805583000024, 1.9936986250000928, 1.5530533339999693, 3.923277124999913, 5.607998707999968, 2.8620073329999514, 3.7338302090000752, 5.5032624169999735, 4.781255708000003, 2.659338790999982, 1.9816717500000323, 1.6915127500000153, 2.023994249999987, 2.9501576659999955, 1.4837971670000343, 2.0568468330000087, 2.450644665999903, 1.8197631670000192, 2.1217699999999695, 2.82116720800002, 2.160446292000074, 2.959136375000071, 2.6529046250000192, 1.8546034999999392, 1.967481375000034, 2.501173750000021]",,1,001,2023-11-09_11h08.52.731,Intentional_binding,2022.2.5,None,
0.4,1000,exp,4,4,52,7,266.791832292,267.781467,267.781467,267.781467,space,0.7107818750000661,268.8976645006667,269.235726292,269.235726292,269.235726292,500,53,"[3.9612834580000253, 3.3855182500000183, 2.205716209000002, 2.3895200000000614, 2.880322417000002, 2.6793477919999305, 2.6689032079999606, 2.153580624999904, 2.8577587500000163, 2.798388791999969, 1.8957115829999793, 2.5001290410000365, 3.1194625839999617, 2.141895708999982, 1.8345965409999963, 2.3593643330000305, 1.8117736670000113, 1.918233999999984, 3.4982977079999955, 2.6181871250000768, 1.9715783750000355, 2.438444666999999, 4.389764749999927, 2.813137875000052, 1.8499312499999405, 1.8309546670000145, 2.2108029170000236, 1.9936957080000184, 1.55305070899999, 3.923274458999913, 5.6079955829999335, 2.862004707999972, 3.73382704200003, 5.503259500000013, 4.781252957999982, 2.6593345409999074, 1.9816687920000504, 1.6915099169999621, 2.0239914580000686, 2.9501547500000243, 1.483794458000034, 2.0568435830000453, 2.450641874999974, 1.8197601250000162, 2.1217672920000723, 2.8211645830000407, 2.160443125000029, 2.9591334579999966, 2.6529014170000664, 1.8546004579999362, 1.967478417000052, 2.5011707910000496, 3.1473693750000393]","[3.9612862500000574, 3.385520917000008, 2.205719042000055, 2.389522750000083, 2.8803254580000157, 2.679350541999952, 2.668905957999982, 2.1535833339999044, 2.8577617500000088, 2.7983922079999957, 1.8957142079999585, 2.5001316249999945, 3.1194655000000466, 2.141897874999927, 1.834599207999986, 2.359367249999991, 1.8117764170000328, 1.918236458000024, 3.4983008330000303, 2.6181898330000877, 1.9715813340000068, 2.4384476669999913, 4.389767708000022, 2.8131406669999706, 1.8499339579999514, 1.8309580420000202, 2.210805583000024, 1.9936986250000928, 1.5530533339999693, 3.923277124999913, 5.607998707999968, 2.8620073329999514, 3.7338302090000752, 5.5032624169999735, 4.781255708000003, 2.659338790999982, 1.9816717500000323, 1.6915127500000153, 2.023994249999987, 2.9501576659999955, 1.4837971670000343, 2.0568468330000087, 2.450644665999903, 1.8197631670000192, 2.1217699999999695, 2.82116720800002, 2.160446292000074, 2.959136375000071, 2.6529046250000192, 1.8546034999999392, 1.967481375000034, 2.501173750000021, 3.147372125000061]",269.235726292,1,001,2023-11-09_11h08.52.731,Intentional_binding,2022.2.5,None,
0.4,400,unexp,4,5,53,1,272.374899584,273.3646162499999,273.3646162499999,273.3646162499999,space,0.41974104199994144,274.1981802506666,274.528548292,274.528548292,274.528548292,600,54,"[3.9612834580000253, 3.3855182500000183, 2.205716209000002, 2.3895200000000614, 2.880322417000002, 2.6793477919999305, 2.6689032079999606, 2.153580624999904, 2.8577587500000163, 2.798388791999969, 1.8957115829999793, 2.5001290410000365, 3.1194625839999617, 2.141895708999982, 1.8345965409999963, 2.3593643330000305, 1.8117736670000113, 1.918233999999984, 3.4982977079999955, 2.6181871250000768, 1.9715783750000355, 2.438444666999999, 4.389764749999927, 2.813137875000052, 1.8499312499999405, 1.8309546670000145, 2.2108029170000236, 1.9936957080000184, 1.55305070899999, 3.923274458999913, 5.6079955829999335, 2.862004707999972, 3.73382704200003, 5.503259500000013, 4.781252957999982, 2.6593345409999074, 1.9816687920000504, 1.6915099169999621, 2.0239914580000686, 2.9501547500000243, 1.483794458000034, 2.0568435830000453, 2.450641874999974, 1.8197601250000162, 2.1217672920000723, 2.8211645830000407, 2.160443125000029, 2.9591334579999966, 2.6529014170000664, 1.8546004579999362, 1.967478417000052, 2.5011707910000496, 3.1473693750000393, 3.7710440829999925]","[3.9612862500000574, 3.385520917000008, 2.205719042000055, 2.389522750000083, 2.8803254580000157, 2.679350541999952, 2.668905957999982, 2.1535833339999044, 2.8577617500000088, 2.7983922079999957, 1.8957142079999585, 2.5001316249999945, 3.1194655000000466, 2.141897874999927, 1.834599207999986, 2.359367249999991, 1.8117764170000328, 1.918236458000024, 3.4983008330000303, 2.6181898330000877, 1.9715813340000068, 2.4384476669999913, 4.389767708000022, 2.8131406669999706, 1.8499339579999514, 1.8309580420000202, 2.210805583000024, 1.9936986250000928, 1.5530533339999693, 3.923277124999913, 5.607998707999968, 2.8620073329999514, 3.7338302090000752, 5.5032624169999735, 4.781255708000003, 2.659338790999982, 1.9816717500000323, 1.6915127500000153, 2.023994249999987, 2.9501576659999955, 1.4837971670000343, 2.0568468330000087, 2.450644665999903, 1.8197631670000192, 2.1217699999999695, 2.82116720800002, 2.160446292000074, 2.959136375000071, 2.6529046250000192, 1.8546034999999392, 1.967481375000034, 2.501173750000021, 3.147372125000061, 3.7710472080000272]",274.528548292,1,001,2023-11-09_11h08.52.731,Intentional_binding,2022.2.5,None,
0.7,400,unexp,4,6,54,2,278.291894834,279.2812635,279.2812635,279.2812635,space,0.4113628329999983,280.3981757506666,280.737143459,280.737143459,280.737143459,700,55,"[3.9612834580000253, 3.3855182500000183, 2.205716209000002, 2.3895200000000614, 2.880322417000002, 2.6793477919999305, 2.6689032079999606, 2.153580624999904, 2.8577587500000163, 2.798388791999969, 1.8957115829999793, 2.5001290410000365, 3.1194625839999617, 2.141895708999982, 1.8345965409999963, 2.3593643330000305, 1.8117736670000113, 1.918233999999984, 3.4982977079999955, 2.6181871250000768, 1.9715783750000355, 2.438444666999999, 4.389764749999927, 2.813137875000052, 1.8499312499999405, 1.8309546670000145, 2.2108029170000236, 1.9936957080000184, 1.55305070899999, 3.923274458999913, 5.6079955829999335, 2.862004707999972, 3.73382704200003, 5.503259500000013, 4.781252957999982, 2.6593345409999074, 1.9816687920000504, 1.6915099169999621, 2.0239914580000686, 2.9501547500000243, 1.483794458000034, 2.0568435830000453, 2.450641874999974, 1.8197601250000162, 2.1217672920000723, 2.8211645830000407, 2.160443125000029, 2.9591334579999966, 2.6529014170000664, 1.8546004579999362, 1.967478417000052, 2.5011707910000496, 3.1473693750000393, 3.7710440829999925, 2.1611633329999904]","[3.9612862500000574, 3.385520917000008, 2.205719042000055, 2.389522750000083, 2.8803254580000157, 2.679350541999952, 2.668905957999982, 2.1535833339999044, 2.8577617500000088, 2.7983922079999957, 1.8957142079999585, 2.5001316249999945, 3.1194655000000466, 2.141897874999927, 1.834599207999986, 2.359367249999991, 1.8117764170000328, 1.918236458000024, 3.4983008330000303, 2.6181898330000877, 1.9715813340000068, 2.4384476669999913, 4.389767708000022, 2.8131406669999706, 1.8499339579999514, 1.8309580420000202, 2.210805583000024, 1.9936986250000928, 1.5530533339999693, 3.923277124999913, 5.607998707999968, 2.8620073329999514, 3.7338302090000752, 5.5032624169999735, 4.781255708000003, 2.659338790999982, 1.9816717500000323, 1.6915127500000153, 2.023994249999987, 2.9501576659999955, 1.4837971670000343, 2.0568468330000087, 2.450644665999903, 1.8197631670000192, 2.1217699999999695, 2.82116720800002, 2.160446292000074, 2.959136375000071, 2.6529046250000192, 1.8546034999999392, 1.967481375000034, 2.501173750000021, 3.147372125000061, 3.7710472080000272, 2.16116599999998]",280.737143459,1,001,2023-11-09_11h08.52.731,Intentional_binding,2022.2.5,None,
0.4,1000,exp,4,7,55,10,282.89203333399996,283.881465959,283.881465959,283.881465959,space,0.2859319169999708,284.5808862916666,284.91144758400003,284.91144758400003,284.91144758400003,200,56,"[3.9612834580000253, 3.3855182500000183, 2.205716209000002, 2.3895200000000614, 2.880322417000002, 2.6793477919999305, 2.6689032079999606, 2.153580624999904, 2.8577587500000163, 2.798388791999969, 1.8957115829999793, 2.5001290410000365, 3.1194625839999617, 2.141895708999982, 1.8345965409999963, 2.3593643330000305, 1.8117736670000113, 1.918233999999984, 3.4982977079999955, 2.6181871250000768, 1.9715783750000355, 2.438444666999999, 4.389764749999927, 2.813137875000052, 1.8499312499999405, 1.8309546670000145, 2.2108029170000236, 1.9936957080000184, 1.55305070899999, 3.923274458999913, 5.6079955829999335, 2.862004707999972, 3.73382704200003, 5.503259500000013, 4.781252957999982, 2.6593345409999074, 1.9816687920000504, 1.6915099169999621, 2.0239914580000686, 2.9501547500000243, 1.483794458000034, 2.0568435830000453, 2.450641874999974, 1.8197601250000162, 2.1217672920000723, 2.8211645830000407, 2.160443125000029, 2.9591334579999966, 2.6529014170000664, 1.8546004579999362, 1.967478417000052, 2.5011707910000496, 3.1473693750000393, 3.7710440829999925, 2.1611633329999904, 2.4041804580000417]","[3.9612862500000574, 3.385520917000008, 2.205719042000055, 2.389522750000083, 2.8803254580000157, 2.679350541999952, 2.668905957999982, 2.1535833339999044, 2.8577617500000088, 2.7983922079999957, 1.8957142079999585, 2.5001316249999945, 3.1194655000000466, 2.141897874999927, 1.834599207999986, 2.359367249999991, 1.8117764170000328, 1.918236458000024, 3.4983008330000303, 2.6181898330000877, 1.9715813340000068, 2.4384476669999913, 4.389767708000022, 2.8131406669999706, 1.8499339579999514, 1.8309580420000202, 2.210805583000024, 1.9936986250000928, 1.5530533339999693, 3.923277124999913, 5.607998707999968, 2.8620073329999514, 3.7338302090000752, 5.5032624169999735, 4.781255708000003, 2.659338790999982, 1.9816717500000323, 1.6915127500000153, 2.023994249999987, 2.9501576659999955, 1.4837971670000343, 2.0568468330000087, 2.450644665999903, 1.8197631670000192, 2.1217699999999695, 2.82116720800002, 2.160446292000074, 2.959136375000071, 2.6529046250000192, 1.8546034999999392, 1.967481375000034, 2.501173750000021, 3.147372125000061, 3.7710472080000272, 2.16116599999998, 2.404183541000066]",,1,001,2023-11-09_11h08.52.731,Intentional_binding,2022.2.5,None,
0.1,1000,exp,4,8,56,9,287.308632334,288.29820804199994,288.29820804199994,288.29820804199994,space,0.41232370799991713,288.8258898336667,289.15106279199995,289.15106279199995,289.15106279199995,100,57,"[3.9612834580000253, 3.3855182500000183, 2.205716209000002, 2.3895200000000614, 2.880322417000002, 2.6793477919999305, 2.6689032079999606, 2.153580624999904, 2.8577587500000163, 2.798388791999969, 1.8957115829999793, 2.5001290410000365, 3.1194625839999617, 2.141895708999982, 1.8345965409999963, 2.3593643330000305, 1.8117736670000113, 1.918233999999984, 3.4982977079999955, 2.6181871250000768, 1.9715783750000355, 2.438444666999999, 4.389764749999927, 2.813137875000052, 1.8499312499999405, 1.8309546670000145, 2.2108029170000236, 1.9936957080000184, 1.55305070899999, 3.923274458999913, 5.6079955829999335, 2.862004707999972, 3.73382704200003, 5.503259500000013, 4.781252957999982, 2.6593345409999074, 1.9816687920000504, 1.6915099169999621, 2.0239914580000686, 2.9501547500000243, 1.483794458000034, 2.0568435830000453, 2.450641874999974, 1.8197601250000162, 2.1217672920000723, 2.8211645830000407, 2.160443125000029, 2.9591334579999966, 2.6529014170000664, 1.8546004579999362, 1.967478417000052, 2.5011707910000496, 3.1473693750000393, 3.7710440829999925, 2.1611633329999904, 2.4041804580000417, 1.5311798330000101]","[3.9612862500000574, 3.385520917000008, 2.205719042000055, 2.389522750000083, 2.8803254580000157, 2.679350541999952, 2.668905957999982, 2.1535833339999044, 2.8577617500000088, 2.7983922079999957, 1.8957142079999585, 2.5001316249999945, 3.1194655000000466, 2.141897874999927, 1.834599207999986, 2.359367249999991, 1.8117764170000328, 1.918236458000024, 3.4983008330000303, 2.6181898330000877, 1.9715813340000068, 2.4384476669999913, 4.389767708000022, 2.8131406669999706, 1.8499339579999514, 1.8309580420000202, 2.210805583000024, 1.9936986250000928, 1.5530533339999693, 3.923277124999913, 5.607998707999968, 2.8620073329999514, 3.7338302090000752, 5.5032624169999735, 4.781255708000003, 2.659338790999982, 1.9816717500000323, 1.6915127500000153, 2.023994249999987, 2.9501576659999955, 1.4837971670000343, 2.0568468330000087, 2.450644665999903, 1.8197631670000192, 2.1217699999999695, 2.82116720800002, 2.160446292000074, 2.959136375000071, 2.6529046250000192, 1.8546034999999392, 1.967481375000034, 2.501173750000021, 3.147372125000061, 3.7710472080000272, 2.16116599999998, 2.404183541000066, 1.5311826659999497]",,1,001,2023-11-09_11h08.52.731,Intentional_binding,2022.2.5,None,
0.1,1000,exp,4,9,57,3,290.675389375,291.658709584,291.658709584,291.66499858399993,space,0.3701992920000521,292.1330376256666,292.45825020899997,292.45825020899997,292.45825020899997,100,58,"[3.9612834580000253, 3.3855182500000183, 2.205716209000002, 2.3895200000000614, 2.880322417000002, 2.6793477919999305, 2.6689032079999606, 2.153580624999904, 2.8577587500000163, 2.798388791999969, 1.8957115829999793, 2.5001290410000365, 3.1194625839999617, 2.141895708999982, 1.8345965409999963, 2.3593643330000305, 1.8117736670000113, 1.918233999999984, 3.4982977079999955, 2.6181871250000768, 1.9715783750000355, 2.438444666999999, 4.389764749999927, 2.813137875000052, 1.8499312499999405, 1.8309546670000145, 2.2108029170000236, 1.9936957080000184, 1.55305070899999, 3.923274458999913, 5.6079955829999335, 2.862004707999972, 3.73382704200003, 5.503259500000013, 4.781252957999982, 2.6593345409999074, 1.9816687920000504, 1.6915099169999621, 2.0239914580000686, 2.9501547500000243, 1.483794458000034, 2.0568435830000453, 2.450641874999974, 1.8197601250000162, 2.1217672920000723, 2.8211645830000407, 2.160443125000029, 2.9591334579999966, 2.6529014170000664, 1.8546004579999362, 1.967478417000052, 2.5011707910000496, 3.1473693750000393, 3.7710440829999925, 2.1611633329999904, 2.4041804580000417, 1.5311798330000101, 1.5238911659999985]","[3.9612862500000574, 3.385520917000008, 2.205719042000055, 2.389522750000083, 2.8803254580000157, 2.679350541999952, 2.668905957999982, 2.1535833339999044, 2.8577617500000088, 2.7983922079999957, 1.8957142079999585, 2.5001316249999945, 3.1194655000000466, 2.141897874999927, 1.834599207999986, 2.359367249999991, 1.8117764170000328, 1.918236458000024, 3.4983008330000303, 2.6181898330000877, 1.9715813340000068, 2.4384476669999913, 4.389767708000022, 2.8131406669999706, 1.8499339579999514, 1.8309580420000202, 2.210805583000024, 1.9936986250000928, 1.5530533339999693, 3.923277124999913, 5.607998707999968, 2.8620073329999514, 3.7338302090000752, 5.5032624169999735, 4.781255708000003, 2.659338790999982, 1.9816717500000323, 1.6915127500000153, 2.023994249999987, 2.9501576659999955, 1.4837971670000343, 2.0568468330000087, 2.450644665999903, 1.8197631670000192, 2.1217699999999695, 2.82116720800002, 2.160446292000074, 2.959136375000071, 2.6529046250000192, 1.8546034999999392, 1.967481375000034, 2.501173750000021, 3.147372125000061, 3.7710472080000272, 2.16116599999998, 2.404183541000066, 1.5311826659999497, 1.5238939580000306]",,1,001,2023-11-09_11h08.52.731,Intentional_binding,2022.2.5,None,
0.7,1000,exp,4,10,58,5,293.975523167,294.95935033399996,294.95935033399996,294.966109167,space,1.1270740840000144,296.7976111666667,297.126788667,297.126788667,297.126788667,700,59,"[3.9612834580000253, 3.3855182500000183, 2.205716209000002, 2.3895200000000614, 2.880322417000002, 2.6793477919999305, 2.6689032079999606, 2.153580624999904, 2.8577587500000163, 2.798388791999969, 1.8957115829999793, 2.5001290410000365, 3.1194625839999617, 2.141895708999982, 1.8345965409999963, 2.3593643330000305, 1.8117736670000113, 1.918233999999984, 3.4982977079999955, 2.6181871250000768, 1.9715783750000355, 2.438444666999999, 4.389764749999927, 2.813137875000052, 1.8499312499999405, 1.8309546670000145, 2.2108029170000236, 1.9936957080000184, 1.55305070899999, 3.923274458999913, 5.6079955829999335, 2.862004707999972, 3.73382704200003, 5.503259500000013, 4.781252957999982, 2.6593345409999074, 1.9816687920000504, 1.6915099169999621, 2.0239914580000686, 2.9501547500000243, 1.483794458000034, 2.0568435830000453, 2.450641874999974, 1.8197601250000162, 2.1217672920000723, 2.8211645830000407, 2.160443125000029, 2.9591334579999966, 2.6529014170000664, 1.8546004579999362, 1.967478417000052, 2.5011707910000496, 3.1473693750000393, 3.7710440829999925, 2.1611633329999904, 2.4041804580000417, 1.5311798330000101, 1.5238911659999985, 2.689619666999988]","[3.9612862500000574, 3.385520917000008, 2.205719042000055, 2.389522750000083, 2.8803254580000157, 2.679350541999952, 2.668905957999982, 2.1535833339999044, 2.8577617500000088, 2.7983922079999957, 1.8957142079999585, 2.5001316249999945, 3.1194655000000466, 2.141897874999927, 1.834599207999986, 2.359367249999991, 1.8117764170000328, 1.918236458000024, 3.4983008330000303, 2.6181898330000877, 1.9715813340000068, 2.4384476669999913, 4.389767708000022, 2.8131406669999706, 1.8499339579999514, 1.8309580420000202, 2.210805583000024, 1.9936986250000928, 1.5530533339999693, 3.923277124999913, 5.607998707999968, 2.8620073329999514, 3.7338302090000752, 5.5032624169999735, 4.781255708000003, 2.659338790999982, 1.9816717500000323, 1.6915127500000153, 2.023994249999987, 2.9501576659999955, 1.4837971670000343, 2.0568468330000087, 2.450644665999903, 1.8197631670000192, 2.1217699999999695, 2.82116720800002, 2.160446292000074, 2.959136375000071, 2.6529046250000192, 1.8546034999999392, 1.967481375000034, 2.501173750000021, 3.147372125000061, 3.7710472080000272, 2.16116599999998, 2.404183541000066, 1.5311826659999497, 1.5238939580000306, 2.6896241249999093]",297.126788667,1,001,2023-11-09_11h08.52.731,Intentional_binding,2022.2.5,None,
0.1,1000,exp,4,11,59,6,299.80893437500004,300.798994375,300.798994375,300.798994375,space,0.2603452920000109,301.16462658366663,301.50169625,301.50169625,301.50169625,100,60,"[3.9612834580000253, 3.3855182500000183, 2.205716209000002, 2.3895200000000614, 2.880322417000002, 2.6793477919999305, 2.6689032079999606, 2.153580624999904, 2.8577587500000163, 2.798388791999969, 1.8957115829999793, 2.5001290410000365, 3.1194625839999617, 2.141895708999982, 1.8345965409999963, 2.3593643330000305, 1.8117736670000113, 1.918233999999984, 3.4982977079999955, 2.6181871250000768, 1.9715783750000355, 2.438444666999999, 4.389764749999927, 2.813137875000052, 1.8499312499999405, 1.8309546670000145, 2.2108029170000236, 1.9936957080000184, 1.55305070899999, 3.923274458999913, 5.6079955829999335, 2.862004707999972, 3.73382704200003, 5.503259500000013, 4.781252957999982, 2.6593345409999074, 1.9816687920000504, 1.6915099169999621, 2.0239914580000686, 2.9501547500000243, 1.483794458000034, 2.0568435830000453, 2.450641874999974, 1.8197601250000162, 2.1217672920000723, 2.8211645830000407, 2.160443125000029, 2.9591334579999966, 2.6529014170000664, 1.8546004579999362, 1.967478417000052, 2.5011707910000496, 3.1473693750000393, 3.7710440829999925, 2.1611633329999904, 2.4041804580000417, 1.5311798330000101, 1.5238911659999985, 2.689619666999988, 1.414861209000037]","[3.9612862500000574, 3.385520917000008, 2.205719042000055, 2.389522750000083, 2.8803254580000157, 2.679350541999952, 2.668905957999982, 2.1535833339999044, 2.8577617500000088, 2.7983922079999957, 1.8957142079999585, 2.5001316249999945, 3.1194655000000466, 2.141897874999927, 1.834599207999986, 2.359367249999991, 1.8117764170000328, 1.918236458000024, 3.4983008330000303, 2.6181898330000877, 1.9715813340000068, 2.4384476669999913, 4.389767708000022, 2.8131406669999706, 1.8499339579999514, 1.8309580420000202, 2.210805583000024, 1.9936986250000928, 1.5530533339999693, 3.923277124999913, 5.607998707999968, 2.8620073329999514, 3.7338302090000752, 5.5032624169999735, 4.781255708000003, 2.659338790999982, 1.9816717500000323, 1.6915127500000153, 2.023994249999987, 2.9501576659999955, 1.4837971670000343, 2.0568468330000087, 2.450644665999903, 1.8197631670000192, 2.1217699999999695, 2.82116720800002, 2.160446292000074, 2.959136375000071, 2.6529046250000192, 1.8546034999999392, 1.967481375000034, 2.501173750000021, 3.147372125000061, 3.7710472080000272, 2.16116599999998, 2.404183541000066, 1.5311826659999497, 1.5238939580000306, 2.6896241249999093, 1.4148640000000796]",301.50169625,1,001,2023-11-09_11h08.52.731,Intentional_binding,2022.2.5,None,
0.4,1000,exp,5,0,60,10,302.909262584,303.898915334,303.898915334,303.898915334,space,0.5613818750000519,304.8653245006666,305.20071333399994,305.20071333399994,305.20071333399994,100,61,"[3.9612834580000253, 3.3855182500000183, 2.205716209000002, 2.3895200000000614, 2.880322417000002, 2.6793477919999305, 2.6689032079999606, 2.153580624999904, 2.8577587500000163, 2.798388791999969, 1.8957115829999793, 2.5001290410000365, 3.1194625839999617, 2.141895708999982, 1.8345965409999963, 2.3593643330000305, 1.8117736670000113, 1.918233999999984, 3.4982977079999955, 2.6181871250000768, 1.9715783750000355, 2.438444666999999, 4.389764749999927, 2.813137875000052, 1.8499312499999405, 1.8309546670000145, 2.2108029170000236, 1.9936957080000184, 1.55305070899999, 3.923274458999913, 5.6079955829999335, 2.862004707999972, 3.73382704200003, 5.503259500000013, 4.781252957999982, 2.6593345409999074, 1.9816687920000504, 1.6915099169999621, 2.0239914580000686, 2.9501547500000243, 1.483794458000034, 2.0568435830000453, 2.450641874999974, 1.8197601250000162, 2.1217672920000723, 2.8211645830000407, 2.160443125000029, 2.9591334579999966, 2.6529014170000664, 1.8546004579999362, 1.967478417000052, 2.5011707910000496, 3.1473693750000393, 3.7710440829999925, 2.1611633329999904, 2.4041804580000417, 1.5311798330000101, 1.5238911659999985, 2.689619666999988, 1.414861209000037, 1.6323919589999605]","[3.9612862500000574, 3.385520917000008, 2.205719042000055, 2.389522750000083, 2.8803254580000157, 2.679350541999952, 2.668905957999982, 2.1535833339999044, 2.8577617500000088, 2.7983922079999957, 1.8957142079999585, 2.5001316249999945, 3.1194655000000466, 2.141897874999927, 1.834599207999986, 2.359367249999991, 1.8117764170000328, 1.918236458000024, 3.4983008330000303, 2.6181898330000877, 1.9715813340000068, 2.4384476669999913, 4.389767708000022, 2.8131406669999706, 1.8499339579999514, 1.8309580420000202, 2.210805583000024, 1.9936986250000928, 1.5530533339999693, 3.923277124999913, 5.607998707999968, 2.8620073329999514, 3.7338302090000752, 5.5032624169999735, 4.781255708000003, 2.659338790999982, 1.9816717500000323, 1.6915127500000153, 2.023994249999987, 2.9501576659999955, 1.4837971670000343, 2.0568468330000087, 2.450644665999903, 1.8197631670000192, 2.1217699999999695, 2.82116720800002, 2.160446292000074, 2.959136375000071, 2.6529046250000192, 1.8546034999999392, 1.967481375000034, 2.501173750000021, 3.147372125000061, 3.7710472080000272, 2.16116599999998, 2.404183541000066, 1.5311826659999497, 1.5238939580000306, 2.6896241249999093, 1.4148640000000796, 1.6323947500000031]",305.20071333399994,1,001,2023-11-09_11h08.52.731,Intentional_binding,2022.2.5,None,
0.4,1000,exp,5,1,61,7,306.825844792,307.816013084,307.816013084,307.816013084,space,0.39954850000003717,308.62673308366664,308.95242504199996,308.95242504199996,308.95242504199996,200,62,"[3.9612834580000253, 3.3855182500000183, 2.205716209000002, 2.3895200000000614, 2.880322417000002, 2.6793477919999305, 2.6689032079999606, 2.153580624999904, 2.8577587500000163, 2.798388791999969, 1.8957115829999793, 2.5001290410000365, 3.1194625839999617, 2.141895708999982, 1.8345965409999963, 2.3593643330000305, 1.8117736670000113, 1.918233999999984, 3.4982977079999955, 2.6181871250000768, 1.9715783750000355, 2.438444666999999, 4.389764749999927, 2.813137875000052, 1.8499312499999405, 1.8309546670000145, 2.2108029170000236, 1.9936957080000184, 1.55305070899999, 3.923274458999913, 5.6079955829999335, 2.862004707999972, 3.73382704200003, 5.503259500000013, 4.781252957999982, 2.6593345409999074, 1.9816687920000504, 1.6915099169999621, 2.0239914580000686, 2.9501547500000243, 1.483794458000034, 2.0568435830000453, 2.450641874999974, 1.8197601250000162, 2.1217672920000723, 2.8211645830000407, 2.160443125000029, 2.9591334579999966, 2.6529014170000664, 1.8546004579999362, 1.967478417000052, 2.5011707910000496, 3.1473693750000393, 3.7710440829999925, 2.1611633329999904, 2.4041804580000417, 1.5311798330000101, 1.5238911659999985, 2.689619666999988, 1.414861209000037, 1.6323919589999605, 1.8793982500000084]","[3.9612862500000574, 3.385520917000008, 2.205719042000055, 2.389522750000083, 2.8803254580000157, 2.679350541999952, 2.668905957999982, 2.1535833339999044, 2.8577617500000088, 2.7983922079999957, 1.8957142079999585, 2.5001316249999945, 3.1194655000000466, 2.141897874999927, 1.834599207999986, 2.359367249999991, 1.8117764170000328, 1.918236458000024, 3.4983008330000303, 2.6181898330000877, 1.9715813340000068, 2.4384476669999913, 4.389767708000022, 2.8131406669999706, 1.8499339579999514, 1.8309580420000202, 2.210805583000024, 1.9936986250000928, 1.5530533339999693, 3.923277124999913, 5.607998707999968, 2.8620073329999514, 3.7338302090000752, 5.5032624169999735, 4.781255708000003, 2.659338790999982, 1.9816717500000323, 1.6915127500000153, 2.023994249999987, 2.9501576659999955, 1.4837971670000343, 2.0568468330000087, 2.450644665999903, 1.8197631670000192, 2.1217699999999695, 2.82116720800002, 2.160446292000074, 2.959136375000071, 2.6529046250000192, 1.8546034999999392, 1.967481375000034, 2.501173750000021, 3.147372125000061, 3.7710472080000272, 2.16116599999998, 2.404183541000066, 1.5311826659999497, 1.5238939580000306, 2.6896241249999093, 1.4148640000000796, 1.6323947500000031, 1.879401166999969]",308.95242504199996,1,001,2023-11-09_11h08.52.731,Intentional_binding,2022.2.5,None,
0.7,1000,exp,5,2,62,8,310.82611099999997,311.81630925,311.81630925,311.81630925,space,0.34347554199996466,312.8661781256666,313.19521195899995,313.19521195899995,313.19521195899995,500,63,"[3.9612834580000253, 3.3855182500000183, 2.205716209000002, 2.3895200000000614, 2.880322417000002, 2.6793477919999305, 2.6689032079999606, 2.153580624999904, 2.8577587500000163, 2.798388791999969, 1.8957115829999793, 2.5001290410000365, 3.1194625839999617, 2.141895708999982, 1.8345965409999963, 2.3593643330000305, 1.8117736670000113, 1.918233999999984, 3.4982977079999955, 2.6181871250000768, 1.9715783750000355, 2.438444666999999, 4.389764749999927, 2.813137875000052, 1.8499312499999405, 1.8309546670000145, 2.2108029170000236, 1.9936957080000184, 1.55305070899999, 3.923274458999913, 5.6079955829999335, 2.862004707999972, 3.73382704200003, 5.503259500000013, 4.781252957999982, 2.6593345409999074, 1.9816687920000504, 1.6915099169999621, 2.0239914580000686, 2.9501547500000243, 1.483794458000034, 2.0568435830000453, 2.450641874999974, 1.8197601250000162, 2.1217672920000723, 2.8211645830000407, 2.160443125000029, 2.9591334579999966, 2.6529014170000664, 1.8546004579999362, 1.967478417000052, 2.5011707910000496, 3.1473693750000393, 3.7710440829999925, 2.1611633329999904, 2.4041804580000417, 1.5311798330000101, 1.5238911659999985, 2.689619666999988, 1.414861209000037, 1.6323919589999605, 1.8793982500000084, 2.070789209000054]","[3.9612862500000574, 3.385520917000008, 2.205719042000055, 2.389522750000083, 2.8803254580000157, 2.679350541999952, 2.668905957999982, 2.1535833339999044, 2.8577617500000088, 2.7983922079999957, 1.8957142079999585, 2.5001316249999945, 3.1194655000000466, 2.141897874999927, 1.834599207999986, 2.359367249999991, 1.8117764170000328, 1.918236458000024, 3.4983008330000303, 2.6181898330000877, 1.9715813340000068, 2.4384476669999913, 4.389767708000022, 2.8131406669999706, 1.8499339579999514, 1.8309580420000202, 2.210805583000024, 1.9936986250000928, 1.5530533339999693, 3.923277124999913, 5.607998707999968, 2.8620073329999514, 3.7338302090000752, 5.5032624169999735, 4.781255708000003, 2.659338790999982, 1.9816717500000323, 1.6915127500000153, 2.023994249999987, 2.9501576659999955, 1.4837971670000343, 2.0568468330000087, 2.450644665999903, 1.8197631670000192, 2.1217699999999695, 2.82116720800002, 2.160446292000074, 2.959136375000071, 2.6529046250000192, 1.8546034999999392, 1.967481375000034, 2.501173750000021, 3.147372125000061, 3.7710472080000272, 2.16116599999998, 2.404183541000066, 1.5311826659999497, 1.5238939580000306, 2.6896241249999093, 1.4148640000000796, 1.6323947500000031, 1.879401166999969, 2.070791999999983]",,1,001,2023-11-09_11h08.52.731,Intentional_binding,2022.2.5,None,
0.7,1000,exp,5,3,63,11,315.25963149999995,316.242882709,316.242882709,316.25038537499995,space,0.35430812499998865,317.3103196256666,317.647336292,317.647336292,317.647336292,700,64,"[3.9612834580000253, 3.3855182500000183, 2.205716209000002, 2.3895200000000614, 2.880322417000002, 2.6793477919999305, 2.6689032079999606, 2.153580624999904, 2.8577587500000163, 2.798388791999969, 1.8957115829999793, 2.5001290410000365, 3.1194625839999617, 2.141895708999982, 1.8345965409999963, 2.3593643330000305, 1.8117736670000113, 1.918233999999984, 3.4982977079999955, 2.6181871250000768, 1.9715783750000355, 2.438444666999999, 4.389764749999927, 2.813137875000052, 1.8499312499999405, 1.8309546670000145, 2.2108029170000236, 1.9936957080000184, 1.55305070899999, 3.923274458999913, 5.6079955829999335, 2.862004707999972, 3.73382704200003, 5.503259500000013, 4.781252957999982, 2.6593345409999074, 1.9816687920000504, 1.6915099169999621, 2.0239914580000686, 2.9501547500000243, 1.483794458000034, 2.0568435830000453, 2.450641874999974, 1.8197601250000162, 2.1217672920000723, 2.8211645830000407, 2.160443125000029, 2.9591334579999966, 2.6529014170000664, 1.8546004579999362, 1.967478417000052, 2.5011707910000496, 3.1473693750000393, 3.7710440829999925, 2.1611633329999904, 2.4041804580000417, 1.5311798330000101, 1.5238911659999985, 2.689619666999988, 1.414861209000037, 1.6323919589999605, 1.8793982500000084, 2.070789209000054, 3.5859329170000365]","[3.9612862500000574, 3.385520917000008, 2.205719042000055, 2.389522750000083, 2.8803254580000157, 2.679350541999952, 2.668905957999982, 2.1535833339999044, 2.8577617500000088, 2.7983922079999957, 1.8957142079999585, 2.5001316249999945, 3.1194655000000466, 2.141897874999927, 1.834599207999986, 2.359367249999991, 1.8117764170000328, 1.918236458000024, 3.4983008330000303, 2.6181898330000877, 1.9715813340000068, 2.4384476669999913, 4.389767708000022, 2.8131406669999706, 1.8499339579999514, 1.8309580420000202, 2.210805583000024, 1.9936986250000928, 1.5530533339999693, 3.923277124999913, 5.607998707999968, 2.8620073329999514, 3.7338302090000752, 5.5032624169999735, 4.781255708000003, 2.659338790999982, 1.9816717500000323, 1.6915127500000153, 2.023994249999987, 2.9501576659999955, 1.4837971670000343, 2.0568468330000087, 2.450644665999903, 1.8197631670000192, 2.1217699999999695, 2.82116720800002, 2.160446292000074, 2.959136375000071, 2.6529046250000192, 1.8546034999999392, 1.967481375000034, 2.501173750000021, 3.147372125000061, 3.7710472080000272, 2.16116599999998, 2.404183541000066, 1.5311826659999497, 1.5238939580000306, 2.6896241249999093, 1.4148640000000796, 1.6323947500000031, 1.879401166999969, 2.070791999999983, 3.585935584000026]",317.647336292,1,001,2023-11-09_11h08.52.731,Intentional_binding,2022.2.5,None,
